object_id,timestamp,x,y,z,vx,vy,vz,ax,ay,az
243,55113.010593792,8.022420231757035,-3.1143519145513108,0.10931390235461347,0.0,0.0,0.0,0.0,0.0,0.0
243,55114.77059456,7.710593727855272,-3.385935051168488,0.1461014419915927,-3.0092502542642445,-2.620885693464305,0.3550144443180856,0.0,0.0,0.0
243,55116.53158272,12.345334703995798,2.101894680082687,-0.2625962846875671,44.72699026389936,52.959616993311464,-3.9440864842631793,460.6726407975049,536.3727153969602,-41.48793780840295
243,55129.163015936,9.065392703804502,1.8461421963668903,-0.001997061391210364,-31.688134856568787,-2.4708727146443197,2.5176979747966306,-738.2608563681143,-535.5243577261145,62.42851164466486
243,55133.616176896,8.778013025436543,-2.7547881364876377,0.030228910128391684,-2.782988535647133,-44.55546906573792,0.3120767265050389,279.91781217504763,-407.5477773430795,-21.35926479852166
243,55134.75274752,8.953479451489903,-2.3426693285363833,0.03996215101038314,1.6972205413721764,3.9862697501342916,0.09414596701260516,43.33537216314466,469.5259263283085,-2.107962018300398
243,55135.166278144,9.059424431901268,1.9196689081354592,-0.014889058486050377,1.024801352401204,41.22941900949255,-0.5305734491103518,-6.504282615017115,360.2514208835119,-6.042884712690141
243,55138.37523072,7.501865365986477,-2.2811820035080874,0.14710806487422667,-15.047535326430017,-40.58430519737358,1.5650497563070689,-155.2744029074403,-790.4001409195803,20.245758189519766
243,55138.995906304,10.663117507526547,6.7025525705209255,-0.13619184612912205,30.581234126104896,86.9066047358444,-2.7405788967144535,441.40233649133813,1233.3180622911323,-41.65167218644267
243,55141.164663808,30.721597396574253,23.11227050701951,-2.068622560302817,194.2687338129094,158.93004571553885,-18.71581845185991,1585.3326613508507,697.555485827911,-154.72207155790383
243,55141.164663808,30.689928918182222,22.87649090371198,-2.0703342592188507,-0.3067129330354024,-2.283553152922334,-0.0165780050595145,-1884.4860567452736,-1561.372641338532,181.10434015723013
243,55142.716637696,13.250129661687428,3.9628376112522714,-0.39912663709443486,-168.26860015907198,-182.48913973198333,16.124713536786846,-1620.5869819903864,-1738.7208045534358,155.73989657561322
243,55143.338564096,10.890891785875683,2.832348668490398,-0.24683734077372188,-22.76623752990218,-10.90902280762573,1.4695653748378796,1404.0726383463527,1655.7184577940423,-141.41964551838285
243,55143.856835328,10.356018976635445,-3.4133160263040883,-0.07288548959092678,-5.15484648086385,-60.192707717464856,1.6764641470242208,169.73010331410737,-474.9724146238678,1.9939907007327056
243,55147.688338176,16.075521094429018,3.4813653704232825,-0.5971241358221513,55.252673125969054,66.60537397755823,-5.064354547592774,583.5607481992663,1224.9200746161675,-65.11899886816975
243,55153.382082816,11.771272068360659,-9.380052316896013,-0.1757433173542453,-41.53484836645798,-124.10923024786989,4.06621185103347,-933.973616444144,-1840.3447662524718,88.10751621711454
272,55113.010593792,6.734643539145575,4.1369926674658695,-0.039192048788435185,0.0,0.0,0.0,0.0,0.0,0.0
272,55116.53158272,9.386872397475756,5.472681704753371,-0.3791052487400992,25.595004108072118,12.889900616647497,-3.28028998018982,0.0,0.0,0.0
272,55122.8478656,6.423718135329995,-3.37899438823352,0.010286871446956392,-28.62624389917856,-85.51368451903642,3.7618135334003684,-523.8170316686184,-950.6508198489136,68.03188592595072
272,55129.680550656,4.430592593924644,2.146161131276703,0.29246900261194564,-19.255769192532124,53.37903570365041,2.7261875256179846,90.52901808102811,1341.8553460737946,-10.005278122912486
272,55131.130514688,6.818965976292041,-4.191344759315272,-0.011709178561637001,23.045682199171164,-61.151303966211714,-2.9350493298078324,408.17144108789927,-1105.116071750272,-54.62590832219763
272,55132.788507392,9.306624168428964,2.9082018862113315,-0.3319129658906044,24.00624232706387,68.51159766382577,-3.090010410980015,9.269536816912721,1251.2647626590003,-1.4953956607228587
272,55134.75274752,6.033349824284657,1.9832252651460844,0.08211377968089861,-31.661147829721134,-8.946949891619479,4.004724510931426,-538.4496634697696,-749.2273078838263,68.624694284232
272,55139.719195904,9.333856258850119,5.413506718158947,-0.359492549468039,31.964207465508995,33.22103143956651,-4.276797092461032,616.1884841140188,408.3816015493381,-80.20353236965668
272,55141.267915008,10.72774574054447,2.7133721997755766,-0.5543649557094135,13.481165045633011,-26.114666597160625,-1.8847312544364825,-178.7609051363961,-573.8721389579753,23.13514434676006
272,55143.442192896,7.284332855143605,-3.337647887308,-0.09322633090712906,-33.187346615403996,-58.31926280412828,4.444418339708493,-449.78749980473344,-310.38540323210105,60.99985344545172
272,55143.75321472,8.60958681134301,2.5282205082619766,-0.18650709618705097,12.789482534787973,56.60909069206263,-0.9002144176204289,443.70352615859963,1109.126415292365,-51.57885927067461
272,55144.582270208,7.926797233032302,-3.0570147587609107,-0.15043671873629805,-6.5972108473102,-53.96534431522239,0.34851716098747076,-187.31701235143044,-1068.386052215491,12.06542363483761
272,55147.06754432,8.256588140333198,-2.9173008663251134,-0.19115905494584373,3.1859590595512617,1.349711988708276,-0.39339985760893675,94.51072817922378,534.3734495393633,-7.1673208524086744
272,55148.826423552,8.794998767235949,2.9849656609945643,-0.3053163854095502,5.20229078412196,57.02953327117883,-1.1030236004583418,19.482423682475957,537.9957353101686,-6.8566051135658395
272,55155.037325824,8.045123599479606,2.9171426736404036,-0.18564940845402922,-7.245580655731913,-0.6553316422753351,1.1562680971995754,-120.27609445916345,-557.3732259943828,21.830140434154206
200,55113.010593792,18.565805080845678,-3.9676656728077244,0.2619649490474947,0.0,0.0,0.0,0.0,0.0,0.0
200,55113.114112,18.031285592374065,-3.962602756079939,0.2335465779434558,-5.164195213424544,0.04891475595465545,-0.2745606459521896,0.0,0.0,0.0
200,55114.149428736,26.431910610851617,0.6909364829115914,-0.024425231817509996,81.16282426025768,44.96027219542916,-2.492400340888498,834.0504063737047,433.9120723912867,-21.427707224356226
200,55114.252932096,25.77931165385056,0.6850660986896195,-0.03799391998094137,-6.305239600607235,-0.05671810944542584,-0.13109709879021392,-845.093443879155,-434.9423285547595,22.814291306163142
200,55115.806526464,25.431094257277042,1.3228842466244106,-0.06553584030679716,-3.360013550042694,6.154424335521611,-0.26575704258225946,28.419026548394466,59.932453064356,-1.299358504892318
200,55115.910162176,24.848167673809147,1.413180361983525,-0.054866757476188965,-5.625279692298754,0.8713634245350335,0.10295734777684747,-21.859966570536017,-50.981883651540365,3.5581180051975334
200,55116.013788416,24.2980614125631,1.6074426442877798,-0.03694259779687137,-5.31464033548609,1.8767904201984724,0.1731673836898713,3.001122822646121,9.713546712658713,0.678307292802087
200,55116.117296128,16.625716958724983,-8.60787750391776,0.31851972140807927,-74.02929921751897,-98.56608972710417,3.4298025261121508,-663.0174223294966,-969.1582636092829,31.422783329294095
200,55116.428075776,26.921135129449322,-3.197595838570801,-0.017281844117472467,99.46596597734172,52.2697459325613,-3.2442419081800815,1676.170298179134,1457.253299390038,-64.47919507730624
200,55119.637795328,26.46861844068283,-2.4089617033703132,0.10277760901379196,-4.367614118373887,7.611762546310535,1.1587934225580532,-1002.1840556279973,-431.03126045489415,42.49734816775887
200,55120.880350976,18.885733244656258,-3.161130799834446,0.17179507873574895,-73.25768309945128,-7.266649023625403,0.6667725798969594,-665.5417709290373,-143.73921424851764,-4.753376325528254
200,55120.983860736,18.218947537186295,-3.175225588494488,0.18551178148332337,-6.4344303545921795,-0.13601361723822303,0.13236511751099087,644.839205515628,68.81007854904313,-5.156990558097343
200,55121.087488512,17.622671019032996,-3.2474865338442136,0.2605042384106757,-5.760582558919376,-0.6981075537937519,0.7244964815387106,6.509992832085736,-5.430347211096522,5.720536536926426
200,55124.2974464,18.59476213417632,-5.3318313077404085,0.27534434848525535,9.38918595400596,-20.132167005236376,0.1433369268554643,146.32784058213298,-187.70873963177672,-5.613275384235738
200,55124.400979456,17.971838633297335,-5.267777789577082,0.29429713259456713,-6.012589387688452,0.6182581055450435,0.18293628100721812,-148.66119329317698,200.28749218011254,0.382221342100891
200,55130.819494144,21.625420797853806,-15.70450784401352,0.2601566476429369,35.25556515545408,-100.71015235775803,-0.3294416376693465,398.22071758929,-977.7774842026164,-4.944236172203475
200,55131.959783168,18.892480778910787,-5.163042611278588,0.15731114788468137,-26.314737590059554,101.50090726156527,-0.9902713999203413,-592.8437319730637,1947.0354031949664,-6.362950399497568
200,55132.06363904,18.548107481204323,-4.6254774109569645,0.1708554467658665,-3.333221485364541,5.203144051614691,0.13109654068895507,222.4402523557871,-932.0750925280831,10.853825594294117
200,55132.166954496,18.17203911652948,-4.1089505913931506,0.26896393839493316,-3.6264504387610033,4.980899983593653,0.9460662367121169,-2.8276248857610016,-2.1431132573030247,7.858803051076788
200,55134.029328128,28.053845030148736,-3.4676877103918717,-0.011219723858252095,95.58676757990983,6.202939675167389,-2.710218237192052,959.6900500277329,11.82079723007846,-35.367261537836406
200,55134.132708608,27.586375426702407,-3.310599557161051,-0.0675419019380632,-4.527105162708794,1.5212852006821191,-0.5454395778471002,-969.5304824325669,-45.338439088252635,20.964316337559545
200,55134.235968768,27.10574095921988,-3.2124516021349314,-0.09748636666482735,-4.649283689162231,0.9494069137772647,-0.28965944153786555,-1.1818599551986804,-5.531905369623609,2.47421792694767
200,55136.718758912,27.443553162612094,-2.1189205608667896,0.033067928125974255,3.2636589859243514,10.564782365420712,1.2613064094973312,76.4482342772753,92.89571596487737,14.984134929891303
200,55136.822266112,26.910667180816006,-2.1553518041784527,0.048611032065375426,-5.148769853169632,-0.3520004160071075,0.15017821395514586,-81.28128995375998,-105.47847757069577,-10.73577378960501
200,55136.92576384,26.400041163829243,-2.117694134319544,0.026668278819801827,-4.932851116255743,0.3637881201104629,-0.21197575376179487,2.085861172314337,6.914802931951186,-3.4985518647305227
200,55137.85757312,23.07596530069166,2.9389129608792506,0.12165091574685061,-32.0762818266107,48.7946608170785,0.9165524362704821,-261.9255302990024,467.34261963273184,10.889940471629941
200,55137.961203456,22.68418313891274,2.9031321992352277,0.11929873776332212,-3.7851464801918415,-0.34569063425578245,-0.022725226117266933,273.3306970661831,-474.76237173954956,-9.07469477825803
200,55138.064708608,22.283569251604177,2.9010332312106115,0.09342527012031088,-3.870348470960825,-0.020278222852548752,-0.2499647144120423,-0.8231401984364135,3.143823688608464,-2.1953707395724775
200,55138.168217088,21.896140517241953,2.8429952461768337,0.0524712328184318,-3.74304018473049,-0.5607186327566275,-0.395666592980594,1.2299553155078957,-5.221321993716385,-1.407660140052809
200,55138.27172352,21.528232791633275,2.7616929636575454,0.06839104212169644,-3.5544167519728758,-0.7854746580330412,0.1538038832484979,1.822321855566058,-2.1714047456536503,5.308524201800919
200,55138.37523072,21.271744847992867,2.6721188154755295,0.15004067400638021,-2.477922973961603,-0.8653733836489366,0.7888148495050393,10.399976802030896,-0.7718993921657783,6.13482349178436
200,55138.892518656,18.178229977261314,-3.187830639978891,0.2734934501408248,-29.921513165119766,-56.6793961254991,1.1940766476754763,-265.4436068732084,-539.8519438420004,3.9198280066483973
200,55139.4092992,19.08015194649129,-4.1761644004725555,0.20994124790394775,8.734873698001323,-9.571748847356837,-0.615486127079149,374.376795765069,456.22499863915266,-17.525132800103773
200,55143.027661568,27.243760819451687,-1.6072496624338792,-0.03602730348966787,78.76963036941504,24.787133670267263,-2.3733194690339943,675.7565167399642,331.5245154362672,-16.961111776856246
200,55143.027661568,27.240105497222387,-1.8420757403621062,-0.05239326802414812,-0.03526974226272673,-2.265807150655198,-0.15791312360515866,-760.378522500737,-261.030407266066,21.376175863286313
200,55143.234930432,26.269468389523375,-2.3099677237551886,0.003133461262999404,-9.366040630792217,-4.514864816646269,0.535798187060135,-90.03609955295481,-21.701998938205765,6.693879999224219
200,55143.338564096,21.62837730018556,2.8407128801854276,0.1558727534962836,-44.785726450505805,49.703177145554164,1.4739077575785589,-341.7938432039873,523.1947292694925,9.05259513271783
200,55143.442192896,21.167017963673423,2.668401780101215,0.12305394455900487,-4.446545542068674,-1.6607210330255255,-0.3163051379414792,388.7859003681284,-495.04127129163516,-17.253933192525942
200,55143.442192896,21.16695448355529,2.675350709010495,0.1297449752265205,-0.0006118164605208133,0.0669732384681,0.06448763519431643,42.849564804278565,16.651383537711272,3.670051246040845
200,55144.685766912,30.077884185445207,-4.462131229844318,-0.13514454616375549,86.08377596622603,-68.95143567983146,-2.558957480084838,831.6157123877691,-666.7503223157706,-25.34371486686549
200,55144.99640832,28.221552156723778,-4.31277557985084,-0.13678268562947782,-17.912442319933714,1.4411885504701731,-0.015807020639496648,-1003.4984220064965,679.2447696668302,24.53981034152791
200,55145.100041984,27.460331592186048,-4.621846561410817,-0.041988299597697676,-7.354367407539639,-2.9860222638379867,0.9158354037285079,102.00455116346804,-42.772537206515715,9.000861248952324
200,55145.410937088,29.94073139527861,-4.173294626279786,-0.01971353844388357,23.93200018506683,4.327828514251552,0.21491679986055265,301.86478570220453,70.56728433720895,-6.7627743465268715
200,55146.55014528,18.40462173408408,-2.822436966220504,0.17806683149278602,-111.44921145719395,13.050501895881585,1.910736541045632,-1307.9044605828685,84.26888255504507,16.383146353434515
200,55146.757163776,27.205418816668583,-1.455877379011611,-0.010813705893972347,85.14028263591699,13.220310433474884,-1.827259756886695,1901.8374055528272,1.6427542583949162,-36.16195877618269
200,55147.895219712,26.339592117384594,-1.8551736045453393,-0.06429524590128555,-8.364976204936712,-3.857704351312841,-0.5166990229505602,-903.3785466387421,-164.99512826347927,12.661667009767719
200,55148.102233344,13.58910350110188,3.323432514766532,0.3095678088704745,-123.32028363544048,50.08648646250495,3.6159318550654196,-1111.8257146338253,521.7378809427761,39.97001427746774
200,55149.343816192,57.560917907212705,-0.5921778290718769,-0.628282119686622,424.828352124203,-37.83019446434717,-9.060923345326936,5295.871566685616,-849.3963505220613,-122.47589911030346
200,55150.792784896,7.324933534620672,-5.165727898468255,0.5384872755357355,-485.3368666819495,-44.18570648144582,11.27232221066148,-8793.2333958459,-61.40148992921942,196.4423273648874
200,55150.792784896,7.324998446472349,-5.162966184604963,0.5304318755569386,0.0006271224720058745,0.02668130364761657,-0.07782434512644157,4688.913364954815,427.1420581110707,-109.6553523249454
200,55151.413956096,28.25717711325504,-2.953243692091748,-0.11521132449219973,202.23120470865683,21.348701864556027,-6.237726336871472,1953.8020377726712,205.9975683132279,-59.512410079639466
200,55151.621097216,40.69918348653021,6.734494022290596,-0.41141688169573243,120.20931417104973,93.59875502204574,-2.861810693295553,-792.4602280960913,698.0489382756597,32.6166449396179
200,55154.520154112,26.60885325369475,0.38498953052422047,-0.1115498881131316,-136.29416090742845,-61.41803439542933,2.9005793050138706,-2481.1289251540506,-1499.4597636173812,55.73894271198322
200,55156.176130048,29.623000618555505,-5.584694311637799,0.1077193442732911,29.119522830443497,-57.67280888749686,2.118348788426019,1598.0530999337,36.182431209177814,-7.557088831156685
193,55113.010593792,33.5882222700476,0.2944703219500009,0.13300525497822235,0.0,0.0,0.0,0.0,0.0,0.0
193,55113.114112,32.96873513012391,0.23614071835460237,0.10041939014387058,-5.985099873382612,-0.5635443911495577,-0.31482438121018214,0.0,0.0,0.0
193,55113.73527552,37.79825048937709,-0.435836535949248,0.0629447642131904,46.662200550648166,-6.492563968292038,-0.362075359670939,508.6719283601647,-57.285478976118966,-0.4565333101023915
193,55113.83877504,37.21633391394852,-0.407008547628569,0.06935187257728259,-5.622060800259491,0.2785153575813921,0.06190088802720296,-505.1330527833382,65.4173145444507,4.096154574509817
193,55114.356433152,34.01207394128111,-0.13874083238022922,0.06288324485287689,-30.919408911121266,2.5886411390367603,-0.06241882600375256,-244.10598930135686,22.291488294403774,-1.1996192901404623
193,55116.738715136,5.994829030651345,-2.551653519195628,0.648972045876515,-270.6577676105909,-23.309699555967125,5.661851727842146,-2315.96822539847,-250.1883072260552,55.29873812521656
193,55117.25638272,22.301256415519692,-2.5323774361087805,0.30576900853068967,157.35498192015444,0.18601178750147193,-3.3118663249687943,4130.269425325122,226.73067167879324,-86.59525527136364
193,55117.981164544,36.10908537322752,-2.098827767512302,-0.03702640189756856,133.39639621673655,4.1884907141355106,-3.3117206572319673,-231.46209306870819,38.66764763539231,0.0014072850407755998
193,55118.084674304,35.566694929486566,-2.093421847100146,0.026921897301191322,-5.149756139302835,0.05132681106819185,0.6071606721634453,-1315.434124818495,-39.28053205026301,37.208036052515325
193,55118.189997824,34.70160027482758,-2.1759506010788394,0.07567285421605163,-8.50744433725316,-0.8115976406921158,0.47942274305750904,-33.01990746570316,-8.48610230229589,-1.2561900778974493
193,55120.259069952,22.710466781387254,-2.809868211486098,0.2934279462134928,-115.71693843495468,-6.117437116054021,2.101382041018072,-1034.593971865376,-51.20245723659714,15.652245413561484
193,55125.436025856,22.243697055849545,-10.962265979125856,0.3611275143377348,-4.509706018361428,-78.76457119074905,0.6540808735156476,1074.431133545984,-701.8818912815167,-13.98313221353066
193,55128.024699648,9.372306222069405,-3.318628818304499,0.5855941017589865,-124.35445883815754,73.84752548998755,2.168640620620481,-1157.856953763375,1474.4323235903187,14.632626742635003
193,55128.33520896,7.752289477891232,-2.977863641655679,0.5979141182931291,-15.644823759256823,3.2908370553091473,0.1189768489001449,1049.8305575263075,-681.379966944301,-19.794010518431723
193,55130.612408576,24.00554882586064,-9.58944843485182,0.3025145153881166,156.91479283110021,-63.83060996557831,-2.8518936725156205,1665.9524042894714,-648.014513785635,-28.681849124263106
193,55130.715988736,23.510278766397313,-9.514839324390215,0.22883857909849947,-4.784967945546578,0.7208233067659493,-0.7118076022725017,-1562.2349006059744,623.6527590259627,20.676079749138022
193,55131.856103424,24.248961321524952,-9.17406972093693,0.20421459806042286,7.124656433441385,3.286751975813467,-0.23750040352524227,114.86934592216703,24.74860151059369,4.5747335056508955
193,55132.166954496,23.077822414759115,-7.022231865429813,0.3005778511590904,-11.293364720968123,20.750305179201728,0.9292367939064701,-177.6061141283916,168.40212079926098,11.250918766334754
193,55132.166954496,22.696908616731797,-6.630522829798131,0.2666051699066774,-3.6731752514749467,3.7772743936102398,-0.32760066096020213,73.48195711430995,-163.67198286601777,-12.119761106716137
193,55132.374154752,22.716344925789635,-5.771811321523289,0.3685351007672004,0.1875445122362799,8.285864898106393,0.9835406047840013,37.252793357605555,43.50421700553675,12.651442638883955
193,55134.132708608,40.58643604646963,-3.014747542729823,-0.019995378331673308,173.05891372206676,26.700169540170638,-3.762636810673782,1674.1342373167035,178.32922824970947,-45.96329712615788
193,55134.235968768,39.724136676983356,-3.0663128336039183,-0.06618599331377517,-8.341212844609704,-0.49880248298370683,-0.44681205231388377,-1754.7236137180955,-263.101682348298,32.074707512988326
193,55134.442609664,39.612208516076954,-2.686801357211766,0.008235880020370345,-1.0827327104956717,3.671189503791686,0.7199170966690669,70.2146252207274,40.338255270379555,11.286309036641786
193,55135.269659136,35.000903928758014,-2.2005275354475975,0.0329649443917539,-44.54660203254832,4.697552722182935,0.23889026810735398,-419.87417070835323,9.914980232763822,-4.646865175170742
193,55135.683567616,33.82086182354655,2.4853050676889006,-0.07270661755856977,-11.400438932005446,45.2700358756138,-1.020897630299737,320.2265466538716,391.9725529010854,-12.170866564541639
193,55135.787076096,33.55635864061181,2.5563954401235724,-0.011625013281934216,-2.558705605530954,0.68770187348845,0.5908807656806627,85.53164606205146,-431.27294973624856,15.591745894741365
193,55135.787076096,33.30730784032335,2.310023277734171,0.14856822169201678,-2.40922499188713,-2.3833128431882873,1.549649889835608,1.4460199677182293,-29.707856378301475,9.274776602558102
193,55136.408113152,30.105039590359116,2.710749143836282,0.1276738089022027,-30.937484637525863,3.871459027997352,-0.20186334317939086,-275.6148222536185,60.428075842239664,-16.921572307201327
193,55137.029279232,8.340838366816312,4.952842555766498,0.5897107095451191,-210.29143495866302,21.663696088057932,4.46432202321992,-1732.9650278062047,171.91327281230622,45.08590994930598
193,55139.202661632,32.93149730611373,-0.007103843925732822,0.03679783167394213,237.86559066723515,-47.97759112323842,-5.348329567215169,4335.025583304733,-673.6405867867674,-94.91783739233605
193,55143.027661568,34.769078687011884,-1.19925872782708,0.15126298544644534,17.730590526757755,-11.5029518206142,1.1044598036418045,-2124.0547976116463,351.9391852838203,62.26214919208561
193,55143.75321472,40.16434364075355,-3.2969987567220937,0.03666173535116002,52.067489837434685,-20.244428878385882,-1.1059696744930776,331.371336020821,-84.36041079948205,-21.33194854672281
193,55143.75321472,40.01513122839849,-3.475444479371354,-0.03156023752346648,-1.4399878097790868,-1.7221065008365357,-0.6583822870229781,-516.3787269967066,178.7513385213662,4.319482351334996
193,55143.856835328,39.83450219837944,-3.6518888576755835,0.0668109122332563,-1.7408155801715706,-1.7004859227406453,0.9480537548025089,-2.8992331387279564,0.20836871679858568,15.482056731767036
193,55144.685766912,40.012598234012096,-4.410212795811176,-0.10604277556214114,1.7204915474333704,-7.325766242600419,-1.669847999357362,33.437856350707186,-54.342856133106466,-25.29016338877549
193,55144.789281536,35.71620082490543,1.2101792764308872,-0.037519576769902585,-41.46246242993862,54.23969734338786,0.6612843936364707,-416.73789373056155,594.1386417153054,22.496636148893096
193,55144.892902912,34.94416530138688,1.221447483326394,-0.006968208725163905,-7.458890684009494,0.10886587582827463,0.2951668771070123,328.5197595090536,-522.9758764350029,-3.5371824872105995
193,55144.99640832,38.21664285664558,-4.457929396971207,-0.04706049962192438,31.577360377832296,-54.802432543042784,-0.3868655160019302,376.6753925014689,-529.8596643393362,-6.58118575387874
193,55144.99640832,34.06871533636232,1.0953094354467752,0.0896167978715976,-40.024904653244754,53.585279322587425,1.3188503834000953,-690.9170463589755,1045.873586698776,16.45909093282022
193,55145.100041984,37.607910226492564,-4.4296396467470425,0.17869668006858141,34.19316392839596,-53.37809742840742,0.860625964164289,717.0417748222909,-1033.4034686196517,-4.427035856832216
193,55145.92884224,28.416720053459446,2.65073145226407,0.11249620375796443,-88.792322010868,68.40056388174712,-0.6395356748347375,-1188.112384206987,1176.4537459826438,-14.49244687692016
193,55146.55014528,22.775101564511296,-2.12043621403449,0.26114024243120326,-54.50311676999886,-46.09377769073446,1.4360353173194196,331.26461153915926,-1106.118480087541,20.051885530971443
193,55146.757163776,29.28595825207092,3.5599063373731505,0.07059180673912202,62.98704235298498,54.95251915905411,-1.8433952650447192,1136.6181109282109,977.5376244190509,-31.72572257345552
193,55149.654231296,40.82156376111735,-3.2676480263820045,-0.014403094232626756,111.47273731131675,-65.97713258075227,-0.8213365359447292,468.5348448512896,-1168.5870577811377,9.876523961950166
193,55149.964741632,38.648777242240826,-3.132692558896899,-0.09807141374494144,-20.99175001027615,1.3038333086823943,-0.8083373270792219,-1279.7674225869441,650.0156385042392,0.12558810562631334
193,55150.378757376,35.715859854744636,-3.1141900214524494,-0.006653257367755572,-28.33252188602772,0.17873791785845097,0.8831162198360039,-70.91320768759238,-10.868628594957212,16.33975264406833
193,55152.242393344,38.01230040570865,-0.0767025091522528,-0.10697647538825983,22.160035232441203,29.31093960277629,-0.9680921393906756,487.2396301535501,281.1179307321326,-17.863664028155252
193,55152.346023168,37.46151626336304,0.06799313356033437,-0.12915937984691794,-5.315602037771437,1.3964535180409097,-0.21408657780517784,-265.16659110887434,-269.40190849258886,7.276886154685049
193,55152.656907008,35.81465985982326,1.0063841383251682,0.04621481270063654,-15.8893281123636,9.053857118538293,1.6920589323024215,-102.0182467690123,73.88075732381752,18.391021448444555
193,55153.382082816,23.826365103751773,5.702267438671775,0.20004055804534993,-115.68382820095795,45.31401404640313,1.4843771745209846,-962.9901531911075,349.90078655335645,-2.004073246154797
193,55153.48571264,31.629590193568383,2.2191507973471434,0.06451281494800032,75.3921504786073,-33.65270781436083,-1.309423716990528,1846.1121871592072,-762.9500506269469,-26.99276962995481
193,55154.520154112,38.59724392130459,-0.8811100484166416,0.20232845185070758,67.39732161154747,-29.988470361244215,1.3330749727785078,-77.33306984495938,35.443751905423056,25.560589118185188
193,55154.520154112,18.78476603520267,7.842449227446613,0.301824003688675,-191.64384399526202,84.38199616211085,0.9624091506511447,-2505.675716853484,1106.2925076848937,-3.5854083168457294
193,55155.037325824,36.019358294313385,-2.821630728505898,0.013941507633548511,166.5272216649999,-103.04041894228244,-2.7816307756687926,3460.785816598906,-1810.9470532196608,-36.17634565176891
193,55155.658472704,36.689043589998114,0.7578890214908206,-0.004192989863112118,6.470067265098908,34.58301042066153,-0.1752038149534026,-1546.368961511745,1329.628783802696,25.181615702272943
193,55156.383268864,32.53368107636333,0.15252836284812793,0.011426542447858345,-40.14484303727741,-5.848372685274141,0.1508998723654326,-450.3453672562384,-390.6064809609227,3.1504787604778
193,55157.107944704,24.08143600172195,-6.18576375451,0.34457010803673604,-81.65993679062223,-61.236337694091816,3.2186102352627914,-401.0910594542519,-535.1214596404911,29.638165021707437
193,55157.211450112,23.498533069056524,-6.248621443997432,0.3595901653278286,-5.63168777848017,-0.6072964499443619,0.14511553869101879,734.5431576798846,585.7644754579004,-29.694416599962175
193,55157.31495424,22.876895297541193,-6.6487594209013805,0.3870010399446402,-6.013076093215313,-3.8705178693430393,0.2651442405931846,-3.6891531735198,-31.56500393472373,1.1610325996572433
193,55157.418335232,22.306340361401865,-6.669793437551214,0.35488526031626133,-5.51225188600613,-0.2032140826488565,-0.3102773381034398,4.838568568745496,35.430597361138204,-5.559269548838911
172,55113.010593792,27.818061557534087,-4.405476334164658,0.9712991951860133,0.0,0.0,0.0,0.0,0.0,0.0
172,55113.114112,27.169419923446615,-4.35829487764266,0.9270251640603808,-6.266772483002352,0.4558379202038035,-0.4277481823380568,0.0,0.0,0.0
172,55124.504582656,29.631458693109565,-7.631764748405921,1.027636681658417,23.785630058585184,-31.62482423644317,0.9720027022756169,290.3347169158281,-309.92962884858235,13.522921379567107
172,55124.60809216,28.98857545006221,-7.511635963245149,1.0027008242967739,-6.218598047585824,1.1620035783147784,-0.24120409978172475,-290.230358837664,317.14639577309407,-11.735327576481739
172,55124.60809216,28.98846670063395,-7.535304488486332,1.0185380519941392,-0.0010519312636816439,-0.22894521897379605,0.15319321868022867,60.14221175910743,-13.454622699620511,3.814998168150935
172,55124.711472896,28.376339058343017,-7.38459167154129,1.019913440088013,-5.906634066249489,1.4542807697040983,0.013271601555493841,-56.985030914455514,16.24203724685903,-1.3501527021726512
172,55124.815106816,27.731498701780865,-7.249876458878005,0.9889898227182767,-6.237668187369629,1.3031268713770547,-0.29913026122303965,-3.202158464853994,-1.4621415260330823,-3.0219249482423645
172,55140.0291008,69.26413388295558,-22.82088696675536,1.2930764764330096,402.753733488693,-150.99650163979547,2.948814457677472,3966.105528128661,-1476.8926586102743,31.496240390135185
172,55140.235484416,38.574038469702636,-17.35594743653888,1.1354676815677962,-297.24897090349157,52.93068104001958,-1.526520248574832,-6779.877374391757,1975.1370718986743,-43.34586184791452
172,55148.102233344,29.329761658070403,3.703763182951671,1.006881528028999,-89.40887464965014,203.68548728080273,-1.2436606473060636,2010.1896007428004,1458.0716099991562,2.735763883819044
172,55155.347835392,38.13070260349273,1.1939869396106615,1.0611774089280424,85.03427118750693,-24.24933822641173,0.5246042087278506,1685.4613457705484,-2202.295400622923,17.08489060792242
250,55113.114112,7.372387817366249,-3.068358980914886,0.10340947133648393,0.0,0.0,0.0,0.0,0.0,0.0
250,55114.874217216,7.107430431748367,-3.3129996950392204,0.14759583080352212,-2.5598853049788772,-2.3635958198560783,0.4269064325812522,0.0,0.0,0.0
250,55116.945725952,10.05959632336619,2.2268854722443057,-0.16945734445543392,28.48402023971944,53.45167142492461,-3.0590926772730747,299.5276235545635,538.534506614203,-33.63471865949904
250,55117.049368832,9.789719492048192,2.325900047260319,-0.16056051687324002,-2.607601556147389,0.9566977596116851,0.08596284955179367,-300.41319583494646,-507.21647483067034,30.38812796884784
250,55128.85249408,11.61979242848354,1.5074128058787246,-0.3184590123283524,17.68015315951422,-7.907324073608636,-1.5254417065698567,195.99798647053854,-85.63443592902381,-15.567619621578006
250,55134.856132096,8.468352178945135,-2.3464609647514205,0.017998067664475093,-30.480730218943854,-37.274667262895804,3.2542128910795993,-465.8120659529605,-284.04094449542947,46.2288194586671
250,55137.754067968,9.381584125255124,6.576158382777108,-0.14003136189084264,8.82305787348378,86.20459151084917,-1.5267783921861544,379.72784284193284,1192.9769329004866,-46.19085321677589
250,55142.094973952,13.19186866127029,0.10053963367566265,-0.5046144446490701,36.76840521817153,-62.48829239780514,-3.5181463210524178,269.66643709149577,-1434.853527849548,-19.216261214864378
250,55142.198603264,12.834206736956624,-0.4246535287462609,-0.4337063755010635,-3.455097119882859,-5.073487725449854,0.6849883894123291,-388.568359202621,554.6403258964741,40.603255883258534
250,55142.509259264,13.772261413778082,4.698212220861534,-0.5748672133611548,9.041790656027937,49.378656502029735,-1.3606315029367706,120.45592427995149,524.8573468499633,-19.717472003977175
250,55142.923909376,9.89070044583509,-2.8461052999386487,-0.15127234092536224,-37.41184540869659,-72.71477715623065,4.08275588464676,-447.7364301316963,-1176.7793171777578,52.465275987110246
250,55144.271492352,9.875219467166657,-2.5558382001287776,-0.11202884254062573,-0.14939504110736085,2.8011449558180885,0.3787088775168232,359.5913038610409,728.7461942695975,-35.74491424254161
250,55146.032355584,9.432045814008887,-3.22245718844273,-0.10109647068738203,-4.276327272283006,-6.432424264476349,0.10549002535157931,-39.82211651187092,-89.09772409958933,-2.636377908503851
250,55146.446637056,6.0620162392634915,2.8912268599785396,0.2183059246377268,-32.55808518732618,59.06471787326526,3.0857682893826164,-273.2319889254616,632.7723499008488,28.79267123630208
250,55150.171753984,9.635618145826601,-2.9532766830995016,-0.09730504918315752,34.52472596190461,-56.46400703938802,-3.0491315671519246,648.0900033738807,-1116.128117407914,-59.26953865834648
250,55153.692732672,9.74302426554498,-5.906844202044529,-0.10979547637707743,1.0376501369229991,-28.53440519479276,-0.12066997226955978,-323.5185192990196,269.8277831304068,28.29185695257428
250,55154.727040768,11.004520898185302,3.3310179270300293,-0.2598563161462937,12.201890362853835,89.35369145631786,-1.4514711076076379,107.98668161027986,1140.278612881959,-12.872241691339104
184,55113.114112,33.90078665775148,0.13244492372236671,0.33239979433525413,0.0,0.0,0.0,0.0,0.0,0.0
184,55117.774163712,4.241778334563117,-2.144302996446241,0.7092388258912943,-286.57313701680897,-21.99853705725903,3.641117809692886,0.0,0.0,0.0
184,55117.774163712,36.88498133175496,-1.9114250989250656,0.46946995125003355,315.4072106270657,2.250127479223415,-2.3167099120848014,5816.492404835378,234.29697274318696,-57.56609801079142
184,55117.774163712,4.2417749720900835,-2.1467389998254895,0.7099380799601865,-315.40724311616424,-2.273664784401251,2.323466288761683,-6095.0951196640935,-43.71007034600435,44.83460254966362
184,55131.130514688,22.46267192158495,-16.690293753057986,0.6354529278216479,175.81547490940505,-140.3323882955934,-0.7187155732912213,4739.863009781662,-1332.1440819728364,-29.354353428382538
184,55133.409538304,43.41987158916241,-5.931953711372282,0.42702582526844246,202.72012143990523,104.06600282176082,-2.016126591871018,260.2500953597674,2364.0788040816797,-12.549926679892637
184,55134.75274752,37.24733012539066,-2.4925263472570895,0.48452035751253497,-59.70466487759354,33.268283307706255,0.5561229195583212,-2538.335953613245,-684.7996311557539,24.88039909700335
184,55134.856132096,37.00638195304196,-2.4929252520787197,0.36394535538770434,-2.3304507325449357,-0.003858207450681176,-1.166201425349523,554.9234014940592,-321.8081540586294,-16.658321132486837
184,55135.89044992,10.982505380577559,4.3079872170598525,0.6525633046498949,-251.38300499453422,65.6948171590161,2.787964628515712,-2405.7745323841414,634.6299096445036,38.196082820334844
184,55138.37523072,36.63814121906066,-1.3720583847221417,0.5167548198635092,247.85839269270969,-54.874764443266265,-1.3120420388371123,4823.157421450926,-1164.8194140153932,-39.610051724976024
184,55138.582256896,36.2205334406224,-1.8055984257221076,0.40589007508859076,-4.03493635606743,-4.188874258481629,-1.0711778189844943,-2433.799377566023,489.72828478209175,2.327235860389585
184,55138.892518656,33.53949123704259,1.3080594359101907,0.4837296128749493,-25.931939215693607,30.11634292757667,0.7528901110763323,-211.79515428869763,331.8115640485667,17.642996676618846
184,55138.995906304,33.263715456280224,1.002835948389063,0.4950327320635335,-2.667792172279782,-2.9526625889836664,0.10934380390580437,225.05206659414813,-319.9020371487086,-6.22552058785934
184,55140.545134336,56.28798736742161,-33.41946992274579,0.6064841245581842,222.99056638111944,-333.38076930172855,1.079409122349728,2185.506033661228,-3200.2032875776304,9.395103377050418
184,55145.203547904,33.04047389407391,1.2105617984265065,0.38608972502271666,-224.3211852607765,334.1540062001741,-2.126641758281509,-4316.225149172256,6441.213259863096,-30.936002440608156
184,55145.307182848,32.156037036622884,1.4069109338535795,0.43465819078553647,-8.524344233486309,1.8924444478168616,0.46811065998286305,2079.884552433861,-3202.3902035196306,25.008639822748755
184,55146.13598976,33.765778162928115,-2.2095274837162875,0.3506210052902645,15.553665085384926,-34.942806038575135,-0.8119853661886159,232.64690623148644,-355.9101150112311,-12.368563207366336
184,55153.071307776,26.348735807701125,5.754432723687014,0.46040729061416386,-71.5744138362398,76.85216779951709,1.05943698889337,-840.7854342503724,1078.82082089773,18.05921439974429
184,55153.174934784,33.2368363890951,1.7557796398961538,0.5181794350423168,66.45978544672316,-38.58097350414088,0.5574140908835455,1331.8219094296987,-1113.7557754607926,-4.843764067731282
184,55153.27857792,32.6248022140608,1.7658365854344487,0.4154934811270454,-5.913093956554704,0.09716395964417833,-0.9920878903296768,-699.2217972043788,373.6841343460616,-14.970325472867456
184,55154.520154112,41.68603915797487,-4.2090999471073465,0.6148509471363361,87.64831381852119,-57.79488115049302,1.9283620824619716,905.0088504175252,-559.9831644196557,28.24918024889049
184,55154.520154112,41.61944850972507,-4.52768719542771,0.48283784146851616,-0.6441237627162306,-3.081658198786768,-1.2769477484530523,-854.0427013245843,529.2347794210096,-31.004597240371577
167,55113.114112,31.454285270499096,3.138753129072592,1.1558814410793792,0.0,0.0,0.0,0.0,0.0,0.0
287,55113.114112,6.451337793104424,4.145207358216262,-0.09238398996581987,0.0,0.0,0.0,0.0,0.0,0.0
287,55131.64884864,5.116500527763838,-3.2235777523029525,0.12531133812632833,-12.879167080432623,-71.09766642150667,2.1004316975020907,0.0,0.0,0.0
287,55135.373175552,4.785357803912509,1.9285790695636114,0.18659189210578264,-3.203129680133212,49.83659686338406,0.5927642286192053,93.59590397309485,1169.7920569343144,-14.58360419695722
287,55135.683567616,6.504658307182712,1.9916692555076099,-0.05383862388067295,16.61023814890548,0.609517074761102,-2.3228098410971176,191.4178222749426,-475.58499349528466,-28.16748994527034
287,55135.787076096,5.990838180218738,2.011812401187327,0.01569474644351665,-4.970505173171125,0.19485731397204042,0.6726400130461224,-208.76409991386117,-4.0112646000969905,28.97686994857166
287,55142.302120448,7.801412075283431,-1.9097959722731093,-0.251422958654546,17.4721997826719,-37.84387102745204,-2.5777097094374195,216.57410709439134,-367.0771255853095,-31.366165098031217
287,55142.405746432,7.383163170382583,-2.1790640893542825,-0.23995804709225288,-4.040551270985752,-2.601301808467854,0.11075836049288558,-207.82690066543748,340.4657039910907,25.972316842136664
287,55144.582270208,5.947873856590424,-3.409538390922727,0.06053432450201268,-13.867971232667458,-11.889019205196139,2.9034003979972076,-94.95394134849603,-89.73925774913448,26.98290795249098
287,55149.550844416,9.905488533289933,-6.0348924009152745,-0.7251295165317662,38.27966059795473,-25.393492965263906,-7.599260573780721,504.3931283194207,-130.62076890226524,-101.58601334840617
287,55155.969116928,5.113035181960421,-2.6917830989382434,0.13249939999807447,-46.29014335128246,32.2909786455389,8.283808433389959,-816.8568499292793,557.1723424843098,153.41402144191483
260,55113.217616896,6.775163317610245,-3.0598667086363776,0.1043275963374104,0.0,0.0,0.0,0.0,0.0,0.0
260,55140.0291008,11.42586432802441,8.176287739186039,-0.5182424949059699,45.09916568291691,108.96017394935896,-6.03723860797353,0.0,0.0,0.0
260,55141.061417472,17.615304368587665,10.956134951302614,-1.2216804226094888,59.94827788223372,26.924415140945744,-6.81319991574482,143.82217108417163,-794.5633907262338,-7.515630460797162
260,55141.061417472,18.521892903213825,13.28507180745694,-1.267578135111929,8.780830098108558,22.55708964105418,-0.44454567864345407,-495.5860882704791,-42.30005314759282,61.68407019690169
260,55145.721715456,7.448177913431383,2.0991564168773422,-0.007850924130142767,-106.86445059745184,-107.94721588435559,12.156720344386766,-1116.0093425848556,-1259.4030931302582,121.60574582477291
260,55145.721715456,7.448124224736645,2.0985891435010493,-0.0013994348124599654,-0.0005181109385389598,-0.00547434693344004,0.06225867851083703,1031.2668733475132,1041.6680325050868,-116.71494185901615
260,55146.860531968,9.667482020354381,-2.928989781123846,-0.22646986780175382,21.44263956508194,-48.57466559858033,-2.1745498544109507,207.17610386753668,-469.2581178361634,-21.611242334267956
199,55113.217616896,17.2455469787944,-3.923725721063686,0.24225015403911376,0.0,0.0,0.0,0.0,0.0,0.0
199,55115.28850816,22.100373839525446,0.5190439888848437,0.15685667699222883,46.84881835413245,42.872488989088,-0.8240424652744216,0.0,0.0,0.0
199,55116.53158272,26.118633976824484,-3.036996784829386,-0.053080774933668806,38.77771874717594,-34.317128375185185,-2.02597521990035,-77.88914103241144,-744.9087839210638,-11.599102277940474
199,55119.741402624,25.907210152028842,-2.476017322545365,0.06874748605083614,-2.0425900708646694,5.4196875906861575,1.1769969466695096,-394.3697336946395,383.9019836961095,30.944285257421768
199,55119.844910336,25.48332158865344,-2.5002709704953725,0.07928322180114034,-4.0904513358453025,-0.23404350866708415,0.10166802810336366,-19.761507081632097,-54.55752744000913,-10.376738113423734
199,55124.504582656,17.33306301853938,-5.224096261687573,0.29745811234710695,-78.73922930022971,-26.31473619295814,2.10777640813069,-721.1780085938234,-251.96423204380352,19.3809099891997
199,55124.60809216,16.73599601392169,-5.101080975919061,0.3290508852823635,-5.775418397271876,1.1899246467790363,0.3055963243990438,705.7776305924549,266.0520896247738,-17.4324555372898
199,55127.610544896,22.909433680751288,-1.3798905560623895,0.1951308478553333,59.64421436206831,35.95200778920127,-1.293858600466934,632.0469745327023,335.8513117835457,-15.453016220404228
199,55129.991081472,12.377678290818707,-4.923641884503167,0.38157169537356017,-101.63037149562629,-34.19684095035375,1.7991352717277749,-1556.2833987948995,-676.9292765958468,29.84707720854654
199,55131.234151168,26.09586762692359,-12.703966057618832,0.12148317968098432,132.3667101228606,-75.07229192224446,-2.5095922150859766,2257.836155582917,-394.4069320939785,-41.574880494207896
199,55131.337788928,25.745181648403275,-12.252913645470997,0.061163109769156954,-3.384125930480349,4.352663800234537,-0.582089747580763,-1309.9979825565977,766.452235478029,18.600433096504315
199,55131.337788928,25.062082348565802,-11.607053147087358,0.05004616526112482,-6.591920393928875,6.232565297521373,-0.10727871224301996,-30.955273630304642,18.141082887203876,4.581934936619087
199,55131.44141568,25.312810804165053,-11.671880564205741,0.07451966920383502,2.4037207290310465,-0.6214970931981685,0.23462621583384094,86.2407459356897,-65.70954145299594,3.277824852436389
199,55131.54572416,25.079244351661764,-11.17587834039671,0.11000481418686636,-2.2648982328178295,4.809742786854053,0.3441001107049832,-45.271684880526244,52.66683410438295,1.0615703941037626
199,55131.54572416,24.480199068362012,-10.36978952500131,0.07237415034558481,-5.808953250700054,7.816658231162478,-0.36490524696683474,-34.36676740593796,29.158114973514316,-6.87523813646421
199,55131.64884864,24.630228985719796,-10.396411685456805,0.18021877759104576,1.4475625028504018,-0.25686371024479043,1.0405380559006763,70.0144363949278,-77.89731430998991,13.560408890058422
199,55131.64884864,24.144385046224244,-9.958652070077946,0.14558063639474206,-4.687661510695291,4.223720279559102,-0.3342058387237085,-59.19566167204376,43.230880138690125,-13.264205885917125
199,55132.374154752,17.36363431459625,-3.0377120253239576,0.2587475072767096,-65.42870792879035,66.78142033281294,1.0919679007834087,-586.101501540445,603.6307257822632,13.7614120841629
199,55132.995645184,17.386242600378203,-5.017857216989917,0.2549335707605702,0.21842775147187096,-19.130979941375937,-0.03684797624691162,634.2434086114954,-830.0342890402723,-10.905944671059643
199,55134.442609664,26.106434237331733,-3.021010120603147,-0.031751203132973416,84.3544345825159,19.31642270906463,-2.7732340081524702,813.8863891691831,371.9194539258175,-26.470323833562993
199,55134.54598528,25.61543336723194,-2.968860339852389,0.1074743746243847,-4.749454346575981,0.5044451404115255,1.3467298444905869,-861.9024493481801,-181.96837128408797,39.85243493294525
199,55134.856132096,24.120535662706153,-2.8395144471920557,0.155922469611677,-14.458650657661366,1.2510334789579354,0.46858997664503443,-93.90734710718557,7.22100244013061,-8.493368836746878
199,55134.959523328,23.73189408975822,-2.7976983287802057,0.12884858568387436,-3.75971397007182,0.4045286338635536,-0.26191243220678195,103.50138669965037,-8.189077837694976,-7.066871644478561
199,55137.029279232,25.89097422601109,-2.0655353987615137,0.054611391963399925,20.86159999073252,7.074350746703254,-0.7172992858518317,237.89760948288466,64.44557503497315,-4.400067520545538
199,55137.132774656,25.36380515169309,-2.0483509990656867,0.09875734000974123,-5.0869521739883465,0.16582197941801186,0.4259891889099097,-250.39223709574475,-66.6642964162262,11.032236289105258
199,55138.478739968,20.81756769123006,2.521010495291561,0.21011157361020416,-43.91781661497034,44.14120069659753,1.0757103765687626,-375.11608189206436,424.81340556246676,6.2764728456476275
199,55138.582256896,20.517261616188296,2.4143693403099213,0.15561163227780916,-2.90156448873011,-1.0303693932560563,-0.526579738308523,396.30001029365957,-436.44879196890895,-15.481365461303634
199,55138.789147648,19.905932152084606,1.9754969078768412,0.1556714467071041,-5.91393540534995,-4.245604651827839,0.0005786383479433523,-29.14135186329394,-31.1038396620975,5.099673369263117
199,55139.099278592,17.438247093578024,-3.6708162820793495,0.24299278247567058,-23.869341224325066,-54.615468747067496,0.8446388863274042,-173.67844686538865,-487.2159311284933,8.164397642016377
199,55143.338564096,25.690620838201575,-2.6147147021981345,0.04464732623100787,79.63397959223828,10.191197619276966,-1.9139993538333355,998.7891475473994,625.3731237294913,-26.620381979482154
199,55143.442192896,25.18347311183262,-2.828653241564496,-0.009525988638301008,-4.8878504961107,-2.061923067793289,-0.5221182117008526,-814.6148501688518,-118.09462788684363,13.41484261362911
199,55143.545949696,20.639170699522104,2.4815666559070815,0.15259269443614354,-43.85075751273632,51.24156447698632,1.5643824760700926,-375.9769558797128,514.3580014783522,20.133923187361457
199,55143.6495808,20.111373872851168,2.362461010290066,0.16833928069728277,-5.092896482840488,-1.1492921006657257,0.15194432731233462,373.9881790624004,-505.5377291301498,-13.629110514760555
199,55143.6495808,20.111254995032592,2.3609810492543093,0.18265174035757337,-0.001147093717729456,-0.014280662506606324,0.13810593732526547,49.13207364078389,10.952122993699328,-0.13353147296821444
199,55143.75321472,19.575792655484317,2.22701291781173,0.15991306918035164,-5.167527482301612,-1.2928715053352702,-0.21944159194919316,-49.85861874908643,-12.339155961015317,-3.4505445991094414
199,55143.75321472,19.579786901674133,2.2296777770709992,0.16112772986103518,0.038546832209271145,0.0257174640337119,0.011722192179563188,50.24168855242921,12.725161479745243,2.230866896084465
199,55146.032355584,26.130786736436555,-3.0029134366266987,0.044632399162153114,63.21273625926262,-50.490981023815436,-1.1241014807888596,609.588379693471,-487.4521170426662,-10.959933458612843
199,55146.239485696,24.82947525498672,-2.5182318219756477,0.09529300476704794,-12.556996483152217,4.676932016184933,0.4888491767599517,-731.1395320326027,532.3424098697127,15.564156639710113
199,55146.34311808,24.143546082543445,-2.4395893860768423,0.11276610486664485,-6.626120147172427,0.7596910145630013,0.1687912764973916,57.292648802561125,-37.84080130273735,-3.0917800064362155
199,55146.446637056,23.45208509275909,-2.4278699253916813,0.20088744206945375,-6.680251703966922,0.11322250765879908,0.8513462389085723,-0.5229686560156968,-6.245576263318321,6.594209967102248
199,55147.377940224,23.86826118366423,-1.5061696539334828,0.06246971865315487,4.020466906700605,8.90408055694698,-1.337183678874318,103.37423507087101,84.92403730305041,-21.142281599199016
199,55148.309133568,23.2855860611662,-2.153975237262497,0.12189055127549864,-5.636485130885445,-6.266522110099008,0.5748051128470909,-93.4161498712545,-146.7522347492443,18.495549198590954
199,55150.06824832,52.39196827104578,-0.4566854977350854,-0.5445750088842907,281.20569526542414,16.398037304295094,-6.438928406278538,2771.2703759663905,218.96926736040328,-67.76183300385144
199,55150.171753984,51.85611102560682,-0.3422421857418169,-0.5568027602171526,-5.1769405314857195,1.1056418952217075,-0.11813284605709788,-2766.7553016965117,-147.74050792554974,61.065485267704
199,55151.724600064,26.197475988089476,-2.935693394870426,0.06807425524358823,-247.8959512647688,-25.056128418587424,6.037128707144123,-2344.9828865718423,-252.75689565050268,59.467871762593695
199,55152.138888448,23.952884581435953,-2.663363721186412,0.10547488784990566,-21.685847658545665,2.6310801150298566,0.3613416760973246,2185.5014819566277,267.4966074318092,-54.83592805923517
199,55152.44963968,32.750274721698574,6.214827189211354,-0.15257300635552706,84.89014793359908,85.66983250147213,-2.49002528747679,1028.4018200558844,801.2799093727763,-27.51417857928011
199,55152.55327232,31.650602798078985,6.1191421184498545,-0.13497593103425398,-10.611041002300697,-0.9232919267560966,0.16979908620381934,-921.517599750827,-835.5612015635244,25.665386995737396
199,55155.140819968,23.39611367647188,-1.100228723956994,0.06138602777539326,-79.75290163849766,-69.75183614685204,1.8972023290327535,-668.0321373235673,-665.0049489722469,16.689757401792505
199,55156.797427456,26.09045110625431,-5.992061833491694,0.2694474549179269,26.029597972072263,-47.25928080876737,2.010050872675247,1021.949183835661,217.29727180541357,1.0902131968619648
197,55113.217616896,32.188907070952425,0.49376904386134907,-0.03449212857738715,0.0,0.0,0.0,0.0,0.0,0.0
197,55113.321111296,31.586199517972386,0.3886128286215613,-0.033097244913466106,-5.815506473783803,-1.0146490573444693,0.013459189183210303,0.0,0.0,0.0
197,55113.424749312,30.927051498710604,0.3812428909794065,0.013409909596208358,-6.368199895923838,-0.07120287819160678,0.4493176765363224,-5.3397144351458925,9.114878121942583,4.210941841118182
197,55113.528255488,30.24578461488137,0.4425752066184391,0.06761491514469053,-6.581228614625603,0.59248732070474,0.5236355120719904,-2.057916996312574,6.4114329228397455,0.717931074317383
197,55114.6670784,32.154734584084366,0.08455230153024779,-0.08484392213217884,18.44108175169503,-3.4586184909116375,-1.472802287827871,241.72371121609822,-39.1350085974098,-19.28624284244532
197,55114.77059456,31.413305392656618,0.2103917870988276,-0.016720994701636904,-7.155087700709943,1.2144012750854232,0.6574134466650897,-247.01325406613356,45.096506368293326,20.557432291515987
197,55117.670519296,20.121831366935957,-2.4106998808535085,0.2760498903035238,-108.9443547631555,-25.28927046103047,2.8247627446753603,-982.1008308279651,-255.71731463654868,20.911394763894602
197,55121.812289792,14.805037012999017,-3.244285322209412,0.3735304556708785,-51.36349863027351,-8.052947288359183,0.9417221266075315,556.2664320317886,166.5134670884721,-18.1913287910521
197,55121.91580288,14.545648585060343,-3.3523347514345447,0.4464071771928104,-2.50600025392293,-1.043885801792311,0.7040756755818345,472.0214556607776,67.71585766058438,-2.295946936981632
197,55122.22667008,15.143477769769408,-3.955483891696207,0.37159678346368574,5.780543612283758,-5.831983448065892,-0.7233583683502753,80.12443928615035,-46.297183162155456,-13.802177872302552
197,55123.779793152,21.852487458707074,-5.7392465566304525,0.20631565906973037,64.73518618322063,-17.21151311073461,-1.5947963792416222,568.8529216894209,-109.80099978168117,-8.40849909267599
197,55123.883430912,21.184944002249097,-5.743361764742714,0.18469396760094448,-6.449629426512019,-0.03976005918459966,-0.20890310016367308,-687.7689789867121,165.90896474924318,13.39013660949437
197,55124.918485248,14.785290752602155,-4.841796829405848,0.37663016319902054,-61.82794454664217,8.710144855157571,1.8543224132629366,-535.0176427953772,84.53405438211593,19.93311006942373
197,55125.021992704,14.14742420389989,-4.738743692181104,0.3856118214902251,-6.162670302313607,0.9956353874133282,0.08677520231989964,537.8032962436931,-74.53279763691705,-17.07694301727728
197,55130.715988736,18.205400728147314,-11.875315942041533,0.33517121957997764,39.20545411799165,-68.94878623121771,-0.4873233475008426,438.31646382170254,-675.7562041557794,-5.546556077816852
197,55130.819494144,17.820588287207457,-11.76425222689193,0.3209621405471794,-3.7132817802200453,1.0717191702568338,-0.13711176841718217,-414.1481487751938,675.6690774187607,3.379397694776438
197,55130.923125504,17.402412090922493,-11.567329334839425,0.3420649712171415,-4.035188424094977,1.9002061368124457,0.20363162416121794,-3.1062360185566886,7.994479472190299,3.288001099857554
197,55131.130514688,21.681230919461065,-8.727104095632507,0.285062647513767,41.2868019876304,27.405651360905498,-0.5500218041201461,437.3169603101182,246.1048968818219,-7.272086318125115
197,55132.166954496,20.055458444092135,-5.681481749434583,0.29232675470701075,-15.677424267592508,29.36912415703817,0.07004823375909988,-549.3095476816984,18.93388929214266,5.97937362498964
197,55132.477790464,21.755714810041468,-4.453248791203993,0.17729057657355352,16.409449996442262,11.85387551883327,-1.1102328158664538,309.67562852430405,-169.0425058596379,-11.39108387032269
197,55135.476556544,33.61403457719907,-2.4570233972047673,-0.030223269383204965,114.56601815568058,19.286003348058173,-2.0048401046901136,948.313706379844,71.80353612798665,-8.643011565384905
197,55135.580062976,33.290535434808874,-2.3255522562270623,-0.08911032337946345,-3.1254554616332464,1.2701956258056952,-0.5689315377229112,-1137.0647114767896,-174.05797191675848,13.872890789986842
197,55136.511620864,29.595434652075372,2.7614069631231155,-0.0017708365208770616,-35.69879684790311,49.145702491722005,0.8437969033846646,-314.69482571071416,462.5308196147246,13.648533175608248
197,55136.615128576,29.090373188478093,2.8423332745102914,0.017892644374707167,-4.873683547546287,0.7809133358980183,0.1897463778878097,297.4526040319513,-466.70493430723553,-6.311380921193682
197,55136.718758912,28.55949424238529,2.865944153496726,0.022082379756786175,-5.128908385947766,0.2281085662266075,0.04047771925069088,-2.4657689358633585,-5.3407373560902,-1.442108941553811
197,55136.822266112,28.273654258269406,2.896743371279369,0.010458776341465637,-2.761799603145722,0.29758351586955306,-0.112307812354694,22.871118318754945,0.6712702876259116,-1.4762211167178358
197,55136.92576384,27.486238835710243,2.9071093847646416,-0.02608414336901088,-7.606747241452551,0.10013982737051859,-0.3530191887769424,-46.80412781717317,-1.9073848311872492,-2.3253679647716154
197,55137.029279232,26.9972600625476,2.9342712242896143,-0.010653880396622739,-4.724641479672932,0.2624448354964086,0.14909125811348412,27.847663698847562,1.5682336654216493,4.851523164107896
197,55137.132774656,26.437025771351482,2.980079114531547,0.034544128940681595,-5.406017128811692,0.4420262079172236,0.43614112257209764,-6.574978519317123,1.732882100539949,2.7699062846960087
197,55138.37523072,20.016170717328983,-2.394172545605574,0.23939878289690597,-62.03170420027969,-51.9204975777545,1.9790951814590887,-547.0592064454655,-505.87290311405246,14.906436754951761
197,55138.478739968,19.646818495104327,-2.4551560176471394,0.30585567221003007,-3.5680369323123955,-0.5891159370704917,0.6419905477963983,564.7739784915954,495.874275176777,-12.916772739416981
197,55139.202661632,19.859231451816033,-3.435514664477995,0.2271164176454512,2.054671797869576,-9.4830150411909,-0.7616452792881713,54.388495101171415,-86.03073910945953,-13.577377731737336
197,55139.202661632,32.601224515779606,0.2531534833660126,0.05562839463193203,123.2533749469385,35.680509006620376,-1.658804669983057,1172.3557788272856,436.86703763268275,-8.678228140087123
197,55139.306042112,32.34951694751538,-0.6351945323042576,-0.110325209559198,-2.4376783535605737,-8.603264268775293,-1.607188498231491,-1217.2631994331853,-428.8690891252789,0.49988018016358293
197,55139.4092992,32.0674991683846,-1.2187146105742968,-0.03472880227121067,-2.7312669669210483,-5.651236312924294,0.732131040390327,-2.8433274100912684,28.589603343781643,22.655685753584304
197,55139.615936512,21.734942055237774,-5.843068949120152,0.16918116349682766,-100.06409017865504,-44.783861776243306,1.9747352934519904,-942.605038863978,-378.9740061835013,12.033813379704053
197,55139.615936512,21.63983199931263,-5.647011608112058,0.28536143212527865,-0.9210789844927383,1.898687733925957,1.1251302799212979,960.1355312223077,452.09010633113803,-8.227871548080024
197,55140.0291008,19.605628210653748,-8.342614847900117,0.30097246051201587,-19.726250621596996,-26.140028536425525,0.15138456635196226,-182.35907865466672,-271.8993777026892,-9.442688139047405
197,55142.509259264,47.568836338193485,10.336692677301563,-0.95477331903502,269.53383444222857,180.04748807897772,-12.103975105510793,2788.1414579736092,1987.415453691719,-118.12786536365299
197,55142.716637696,34.210168303480295,0.6525283688888105,-0.16728280579327404,-128.89164245132037,-93.43804638578051,7.598133691383484,-3844.2241380514,-2638.7361099355803,190.09658417945948
197,55143.96059648,39.14182362723829,-3.7943590092031156,-0.21511866991076545,47.58962106678221,-42.91169421969854,-0.4616078167074298,1703.013674891927,487.57056112314524,-77.77511182066633
197,55144.3751168,36.39516432411433,-4.2394763937852336,-0.21116307521967137,-26.532775193543287,-4.299841442447111,0.03821111143133138,-716.0235980287487,372.99114905871085,4.828259275804702
197,55145.307182848,21.65919505429222,-3.899462612155619,0.1880915726351864,-142.02763443403296,3.2771073416066496,3.8480803083476314,-1113.1579705999466,73.02784718958421,36.72013015453601
197,55145.514580736,30.692280892556727,1.9295435652079655,-0.056387754366507004,87.16534767418972,56.24737317258941,-2.3591191226130044,2211.6125461048214,511.1400157400634,-59.896773502449825
197,55145.514580736,30.82089758421499,1.6297722485991866,0.017926267561581,1.2410951081198183,-2.8926627625154966,0.7170979745359829,-829.1316481063487,-570.6756125255527,29.684156399624644
197,55147.274555904,27.319171680745793,4.0142055250554565,-0.01779156755864797,-33.87095744572853,23.063780622868446,-0.3454859994073963,-339.6264786759437,251.06750601975975,-10.277999351203619
197,55150.06824832,37.83049458747315,-3.010287848734405,-0.32504741427628936,101.55311796676477,-67.86578726343589,-2.9684930740472946,1308.3735727596275,-878.4984740897685,-25.341676708274434
197,55150.275262464,36.36581187140996,-2.9071178733443532,-0.1908458891635103,-14.152219541562895,0.9968603615000694,1.2966968377379833,-1117.9809255548305,665.3722998936073,41.21159030283831
197,55150.585775104,34.249568374033714,-3.0443948074926523,-0.057563782401864216,-20.444262382626,-1.3261827688023027,1.2875901874820095,-60.78514827093525,-22.442078778241275,-0.08797605166454804
197,55151.931781376,17.48619065525444,-11.425009664744115,0.3544243700372207,-162.00702689686403,-80.99313392372015,3.9815946889162257,-1368.1110682461363,-769.928716936756,26.035782707156496
197,55152.760552448,20.751258917518438,-2.0129599985032645,0.27111240342694476,31.51092490714258,90.83497386041222,-0.8040374389913785,1867.6270012351242,1658.2999699883178,-46.18577086383516
197,55153.589214464,31.041121197188176,2.126637931708871,-0.07300633507472476,99.40147224667233,39.98908028004925,-3.3242339212174046,655.8319415523077,-491.1782628589196,-24.345441549698947
197,55154.623535872,38.808226095841384,-2.8512764556472585,-0.11418986923196606,75.0409420140748,-48.09351615135157,-0.3978897206813941,-235.35630849191222,-850.9993231073806,28.272519597839345
197,55154.727040768,38.24907510447042,-3.1304643997928263,-0.40079814473126163,-5.408416413058164,-2.7004595945410466,-2.7722331270987417,-778.1505125663633,439.0666490973886,-22.96595740270179
197,55154.93392384,36.24239859964887,-2.999274620888831,-0.24475537965830263,-19.406557081204586,1.2687356066878381,1.509088694775282,-135.37593889916644,38.38606424802971,41.40463902356486
197,55155.037325824,36.06864628333795,-4.220068868859549,-0.015795506689972427,-1.678861330636985,-11.79578090869592,2.2122978568310327,171.29177618367254,-126.23435501082295,6.794675861543083
197,55156.279639552,33.063981533608214,0.20850387631165357,-0.04843306371550504,-28.994351999391565,42.734750038238175,-0.31494522538117664,-263.58845909754325,526.207594085609,-24.387338228093213
197,55156.486778112,31.893005471823287,0.03512112161361153,0.016012768081155926,-11.298460500002744,-1.6729276278726308,0.6218220070481099,170.74331204808283,-428.47877798851295,9.038637012925674
197,55156.590418432,31.321191000873686,-0.023130300946063942,0.025350425405707533,-5.524338539147136,-0.5627709597348111,0.09021174322102207,55.7841854283921,10.725299162331764,-5.135922956600033
197,55156.693926656,30.7375484397405,-0.09324570014585273,0.013723446071327139,-5.639014975288176,-0.6774382343163158,-0.11233709628139253,-1.1079763262234676,-1.10788780942422,-1.956978492047834
197,55157.418335232,32.634894135282174,12.773104094937498,-0.1590221489034187,18.33065797208569,124.30452605293691,-1.6689317213553398,231.57607890512895,1207.477185318624,-15.038589826020859
197,55157.52184192,31.010461089810164,12.172069914847295,-0.10165260257412267,-15.712761450161182,-5.813663247909649,0.554922222549511,-329.2940449719299,-1258.6028550145897,21.510819801393367
177,55113.217616896,26.48008723351902,-4.299367672195094,0.8770976177351635,0.0,0.0,0.0,0.0,0.0,0.0
177,55114.460065792,18.774433859969623,-3.9180272973576273,0.7464582891612186,-74.44686729474496,3.684255559314931,-1.2621497861821405,0.0,0.0,0.0
177,55114.5635712,18.144594429357436,-3.8987893245387295,0.7364076990635913,-6.0849818235261335,0.18586120403846645,-0.09710039589031517,660.4553641711825,-33.79856044054386,11.25573284058344
177,55115.910162176,10.542839721568393,-3.1682675251618018,0.7430673610869674,-73.35743058614052,7.049583188279668,0.0642661745065775,-649.1835346129575,66.23536648790187,1.5571979683433526
177,55130.19820288,21.722112498346117,-13.383756917164156,0.860033254153433,107.99837339405266,-98.68765704082347,1.1299595640962645,1752.0041085424668,-1021.484150171245,10.295227150334792
177,55130.301716224,20.256123147035908,-12.536662125194399,0.918762680045766,-14.162567587865892,8.183577345823615,0.5673707403490703,-1180.1672240712057,1032.4570767494397,-5.43503418587357
177,55131.130514688,46.973536968124755,-29.284643271041908,0.9459377501075448,257.7993175816771,-161.60314539359564,0.26221529389311676,2624.1906823179665,-1638.29109919696,-2.9444790719444995
177,55136.097458688,12.972724597390357,4.7986609264383455,0.7030315955707795,-328.4874131490081,329.2843801884488,-2.346756114875492,-5664.212061799983,4742.544727088837,-25.205699784508198
177,55148.205626624,24.56635575804959,-1.9982027789979138,0.7393123383612279,112.00824517649578,-65.66577509668171,0.3505150610144863,4255.711175660642,-3815.6875281477,26.0588427378779
177,55150.896292352,6.96826333516921,-5.150530310143861,0.7491198869456682,-170.01426673907616,-30.45447431747606,0.09475022298005244,-2724.604997806373,340.17456773453404,-2.4709309595128066
177,55151.517462272,21.57573040073063,-17.201523079650702,1.0451089339522621,140.95117440371513,-116.2831020579395,2.8560737873970616,3000.5848331762913,-828.1823140987275,26.6447151697392
177,55156.279639552,36.90753188913859,-15.68437940487763,0.8361047070009189,147.94850213478267,14.640101776405372,-2.016844683298878,67.52266897926809,1263.3800350613274,-47.02258826593
177,55156.383268864,36.31471366430605,-15.730179960770796,0.8276429786200605,-5.7272005769534315,-0.4424779116907633,-0.08174852532336477,-1484.6567402393841,-145.7123878335743,18.694910797569275
177,55156.486778112,35.665409175220375,-15.814540341736297,0.7567550646466543,-6.264979585685467,-0.8139726021819919,-0.683980076189831,-5.188897609595644,-3.584461052156685,-5.81078436304525
190,55113.217616896,41.12371911258917,-0.5623308781991583,0.16473205738943797,0.0,0.0,0.0,0.0,0.0,0.0
190,55116.428075776,44.00009018708025,-3.2882828349474424,0.21000412576716876,27.789160448779555,-26.335933139344917,0.4373819439202483,0.0,0.0,0.0
190,55116.945725952,41.38741127481527,-2.4382273880927294,0.15398205574885182,-25.20847464166754,8.201773694981748,-0.5405298465115176,-511.34853730942905,333.2376216715036,-9.435397689001107
190,55117.981164544,4.491786668545256,-2.4530865942123965,0.7037842867127746,-356.4458521116418,-0.1435536718391038,5.311597968597971,-3200.0593708188935,-80.6235795209048,56.53696632007835
190,55127.196385792,26.78062956074803,-3.173603094831624,0.333752489155442,215.32497550466186,-6.9606663117004475,-3.5747520914534237,5523.6846545241815,-65.8578204032374,-85.84802352731346
190,55127.921197056,9.954487823498685,-3.4646877718397655,0.6110317052771483,-162.5673465007579,-2.8123419074430993,2.6789591522889946,-3651.0421111829896,40.07942529876128,60.420817710486986
190,55128.64560896,6.905842634142081,-3.707324416323623,0.6453171613156666,-29.4527316986521,-2.344094358764153,0.3312292100746307,1286.0102738827602,4.523704322149431,-22.681242254866888
190,55130.819494144,26.92130163760447,-13.216095669119957,0.4107138322610009,193.14094694748755,-91.75573159498553,-2.2638256321183,2147.9374452918196,-862.7855239763294,-25.041211871039437
190,55130.923125504,27.389293769429514,-13.853988123276672,0.45713476126380836,4.515886962683761,-6.155338992745203,0.4479384455929603,-1820.136261477273,826.0004189505922,26.167149427607235
190,55131.234151168,16.568454647107316,-11.038414764430913,0.6028230258126337,-104.41019877315836,27.167447065270352,1.4057450155672322,-1051.0270169159185,321.53132272482895,9.241868696758639
190,55131.337788928,16.345902547205743,-10.70156210181063,0.5301512575213492,-2.147631722652809,3.2506341859876025,-0.7012838566459813,986.8355910130994,-230.79766970078245,-20.332866095227867
190,55132.788507392,47.06695123123728,-9.116339113518348,0.15665242094425835,296.4623281371588,15.297618989483041,-3.6043149368699745,2881.627017862787,116.25505361519917,-28.014647597140357
190,55132.892132864,46.70063249431525,-7.602111962792319,0.28729810520393073,-3.5388902203012704,14.628472734004735,1.2621269068459557,-2898.2175103689774,-6.464411728869355,47.01316561936249
190,55133.20265856,45.79850918934525,-3.635421125150547,0.26448350770646556,-8.716164503169141,38.32550349117668,-0.22043082554896526,-50.021958283190784,228.9567481277283,-14.324224870157092
190,55133.306158592,45.355999858939875,-2.535983031459593,0.2218638853544892,-4.280427192730746,10.634950247597327,-0.4122629240205896,42.90723222946997,-267.8528766319881,-1.855606818469385
190,55134.029328128,41.97194868715905,1.0130850619516791,0.05869236265893818,-32.73394718163036,34.3301568494303,-1.5783591128888232,-275.2310686714484,229.20387487936466,-11.279655394521154
190,55134.029328128,47.02556320095572,-3.667133951820083,-0.006329257978102021,48.88364335338573,-45.2717864531126,-0.6289545244898949,789.4874403625556,-769.9900726528779,9.18359624990353
190,55134.54598528,39.42927617000436,1.874003650666607,0.23598049182244374,-73.47892978205529,53.59945709619045,2.3438636558302637,-1183.6139001509828,956.3821288772255,28.75608799885024
190,55134.959523328,37.36752564823366,2.207024787872112,0.22843429973305618,-19.945350109373557,3.2216425339768917,-0.0730017728265959,517.8832152120258,-487.35438093911074,-23.380727509360376
190,55135.062893312,36.88086947637773,2.2883928558473556,0.19230304821467215,-4.707229894753872,0.7870406751254004,-0.3494830993997127,147.3922230156085,-23.54892697261806,-2.674292942433858
190,55135.166278144,36.26082222342437,2.212156636056986,0.22384379538087273,-5.997691074291718,-0.7374297568395701,0.30509232458359387,-12.482576870340973,-14.746138555194378,6.331680624622794
190,55135.89044992,32.77672972410283,2.584569270675033,0.1720023433798108,-33.655310334705675,3.597396680219144,-0.5007732015258614,-267.16447956236084,41.87315032959278,-7.7844243155243396
190,55137.85757312,38.87755817559272,-1.3221577633719885,0.20979939820346694,58.87106698012655,-37.698681535339105,0.3647296369448922,892.8503070758696,-398.49410714883527,8.351828932783397
190,55138.064708608,36.27820560340561,3.3155141120419276,0.17322942102326166,-25.112460081803647,44.80475295655741,-0.35330416579758583,-811.3685667109206,797.0693269771314,-6.936956302770532
190,55138.064708608,36.28919035386398,3.1075041575991555,0.07905183424981033,0.10612415966421988,-2.0095933631530065,-0.9098538281241884,243.63785692627377,-452.27546881810036,-5.376850885202677
190,55138.168217088,35.94277876626402,3.2249518021043486,0.12536519481030872,-3.346763876400185,1.1346893350813438,0.4474442763085883,-33.359163959895426,30.377655160291916,13.113176429501728
190,55138.582256896,25.61303342933889,-1.7957920490079544,0.4175362984106785,-99.80624682027863,-48.510547325329746,2.822964199848508,-931.9938341983317,-479.67346550820855,22.952330389772232
190,55138.582256896,34.50553301192881,2.60797571836104,0.26290822277398007,85.9195439229856,42.549309628968146,-1.4940201698074929,1794.4870378896935,879.8225185777195,-41.71080636199181
190,55138.789147648,24.809002028635607,-2.3692102406775253,0.3900549364933781,-93.80319657134011,-48.148761004551005,1.2300036168574118,-1738.6184382823014,-877.4033685795348,26.35191277847617
190,55138.789147648,24.78489264117969,-2.631432412316537,0.31500309246219427,-0.2332316180537552,-2.536709051308988,-0.7260434572764789,905.1857649719552,441.2460789084206,-18.92258876023929
190,55138.789147648,24.733758376576855,-2.8068603801587284,0.35187443798143114,-0.4946673694267694,-1.697071270123761,0.35668942609990256,-2.5291013063405905,8.122565479648726,10.474241320798084
190,55138.789147648,33.964603471669065,2.013342126094696,0.3352973720019836,89.29820143579308,46.63011998691039,-0.16036475120075128,868.6465435683019,467.51204415630195,-5.001926432755377
190,55140.132222464,29.08015510974994,-7.500087938302893,0.2786260999133825,-47.30153040339208,-92.12909382766807,-0.5488107767904897,-1322.8466942268403,-1343.759353087361,-3.7617536573343053
190,55140.235484416,28.480755779186506,-8.711772024352532,0.3473594379292031,-5.805483227441592,-11.735768259712206,0.6657168613148658,401.9100349322319,778.6496904230816,11.76330948794531
190,55140.751520512,24.588591361142313,-20.303312605757146,0.4939910711331761,-37.69616303112789,-112.26571043936869,1.4201481122308413,-308.86574561958975,-973.6467124424453,7.306773397974026
190,55143.027661568,43.74137490000356,-0.6210242632851767,0.1346081361000575,184.80278800451984,189.91191294035494,-3.467640524449656,2146.864261063622,2915.673701415045,-47.161654879177554
190,55143.442192896,41.86399267968523,-2.7490815389892056,0.10657624845290492,-18.09406439159784,-20.51005115467011,-0.27016916140795966,-1955.504144214912,-2028.030587770401,30.816981276916948
190,55143.442192896,26.073981630972977,-2.657968936442733,0.26247814358634347,-152.18290317620958,0.8781362045084267,1.5025703869925149,-1292.3378398416728,206.1376927448033,17.085526426713216
190,55143.545949696,41.34035904205477,-2.8658759560798837,0.20839062273535447,147.31462680338885,-2.006222182442518,-0.5219236190964405,2890.035118970302,-27.832940841123456,-19.535582734657325
190,55143.545949696,41.24274838838729,-3.1622699812274933,0.07760689453666636,-0.9419049870090163,-2.8600874998465224,-1.262012302771987,-1430.6180873016672,-8.239469468534162,-7.141569037716375
190,55143.6495808,40.81553946459162,-3.0699594235866976,0.10388162685896773,-4.122288569183689,0.8907369096990825,0.253534096966545,-30.688635363545924,36.19301874855125,14.624038150237249
190,55143.856835328,40.88514171577838,1.7798828793463426,0.10142518382224353,0.6707929687057858,46.740443888951184,-0.02367401469012218,46.19341097779689,441.87738951688027,-2.6715982457026826
190,55144.478636288,37.19361395028861,1.2711485307313861,0.20502125702963347,-35.62084465674969,-4.908955953948197,0.999634803039362,-350.1907254445064,-498.3831533430647,9.874265276557656
190,55144.582270208,36.46318706788528,1.171751607580136,0.2869700702569844,-7.057489312710908,-0.9603873293219563,0.7918011884206849,275.9832365594751,38.15163644732568,-2.0081181968100945
190,55144.685766912,36.549681181714895,1.2072892366036367,0.10355966489430912,0.8355738588900273,0.34331022660644095,-1.771830860899579,76.25070609717154,12.594332138929829,-24.765892491186083
190,55146.446637056,25.67433138483738,-1.7330120571768015,0.3735624422961621,-105.06749489148304,-28.406451004674427,2.6085152170002353,-1023.1367581497864,-277.75340083003493,42.31882171687078
190,55148.205626624,17.276531577985793,-2.2238302750743038,0.4514706868016858,-81.13271904843626,-4.741886862323482,0.7526861628526126,231.23835869210217,228.62779277002946,-17.929512576524946
190,55148.826423552,46.87921433458714,-2.9060573978054496,-0.16321296383230255,286.0303196017144,-6.591890456692893,-5.939264440672394,3547.6433725460224,-17.8753096032758,-64.65970620376635
190,55149.24043392,44.002958328295776,-3.3180605550678446,-0.009010581734923306,-27.821559254757627,-3.9852399187869074,1.4915747073149868,-3035.8384739476546,25.21370915459841,71.87730550274293
190,55149.24043392,43.94154654385811,-2.4315971227931716,-0.05543916835610041,-0.5940262605052211,8.574617438176436,-0.44909621082765183,263.3675239281625,121.48946926967723,-18.77179598234306
190,55149.757714944,40.098972631033554,-3.0782959456770227,0.3139391310432771,-37.12327639955132,-6.247785909610382,3.5685800756711172,-352.91070005296035,-143.19989383913995,38.81494817050423
190,55150.999801856,15.592282022909801,-10.954587301822613,0.531017940214332,-236.76841923429717,-76.09583373142868,2.0972805883327443,-1928.8473353117195,-674.8284431310105,-14.214781563442148
190,55151.310447104,43.573751288897355,-0.4295008437976433,-0.0443040927131797,270.3288740832288,101.6828224701199,-5.558184093842991,4899.065129500144,1717.518959070926,-73.95941679989014
190,55151.828105728,40.318029638391145,-0.45622087587827287,0.13590524364034984,-31.40295443754131,-0.2577271769738633,1.7382031347334466,-2910.3442740323108,-983.2641667655664,70.37705931095756
190,55152.138888448,38.58183264760226,-0.21536140473304755,0.06402359139102565,-16.77405666611151,2.3270345698064485,-0.6944758656309071,141.33532167292768,24.972362144914232,-23.50303313452353
190,55154.003122176,41.28269557553847,0.629642334744076,0.029758055051711807,26.128051244619147,8.174535915387473,-0.3314835714680512,415.0334555668452,56.56851861307384,3.511574454663692
190,55154.209893376,40.46974982710032,-0.8857368004553376,0.21118629820102797,-7.864193822702999,-14.65932413938318,1.7550825153829666,-328.83080352142434,-220.88792706793387,20.184815730202263
268,55113.321111296,6.119343037523691,-3.0179385575834052,0.0997312509448971,0.0,0.0,0.0,0.0,0.0,0.0
268,55115.184861696,5.784641429246792,-3.0890244064479595,0.12506423229335417,-3.229262199035417,-0.685849242871695,0.24441722726878207,0.0,0.0,0.0
268,55129.57704448,5.461445272050881,2.2752533244401487,0.15979155416784396,-3.1224818623709685,51.825677832132776,0.3355096595906708,1.0316325150193477,507.3274765383815,0.8800676041204841
268,55134.856132096,4.048017712890621,-1.981320137536071,0.3577023059811746,-13.670671408443964,-41.16957869362006,1.9141927994141934,-102.02208970937262,-899.4501248177344,15.269023391195221
268,55134.959523328,3.96509145110005,-1.9730059793396701,0.36156442962807644,-0.8022276736246459,0.08043106784302528,0.03736213838180148,124.48917215906086,399.05210548988117,-18.15643756847385
268,55141.061417472,14.004782355785101,7.101475555989446,-0.939776012273212,97.24016651933233,87.89156000412655,-12.604228802479499,949.5968379692094,850.5011639382373,-122.44106116703186
268,55148.516012032,10.87548877006578,3.140561783708239,-0.5284248815325054,-30.23007542495412,-38.263818592871495,3.9737964392923164,-1231.4073201690833,-1218.7052782950225,160.14954804579526
268,55150.378757376,9.126896126119227,3.1550166603488226,-0.30102520501557173,-16.89172684016732,0.13963676935639321,2.19672273731918,128.8509027949666,370.9844485180965,-17.166859103802015
268,55154.106492416,7.868401665681392,-5.170155234386693,-0.09517702712317311,-12.171013310449625,-80.51348744702098,1.990776274206685,45.65444585669814,-780.0036307075702,-1.9917267994252068
203,55113.321111296,16.61305276578702,-3.875723379731588,0.21648906389988287,0.0,0.0,0.0,0.0,0.0,0.0
203,55113.424749312,15.988486960145242,-3.843098338240417,0.20098697821443734,-6.034092164822169,0.3151989837749548,-0.14976966866898786,0.0,0.0,0.0
203,55116.842230528,24.523069243400332,-2.794884228794206,-0.10796247806898762,82.46337812071418,10.128120344955258,-2.9851508823900157,855.0858275982864,94.81502642062678,-27.396198827702854
203,55116.945725952,23.884503882075915,-2.7285770244107823,-0.009977551543274288,-6.16120819226074,0.6397661313882412,0.945409144611564,-855.0957510359104,-91.54853872820841,37.92407184177267
203,55121.190998272,16.70817625899997,-3.2671343866232836,0.2558564377645145,-69.32893221107551,-5.202884931917636,2.5681640516044233,-610.2495714306925,-56.444574547905184,15.677080374693963
203,55121.294509568,16.20289310703814,-3.3159320197566964,0.20829525716531672,-4.881454206382614,-0.4714255969069155,-0.459480440214669,622.6160745223588,45.70982029292182,-29.24955617981482
203,55132.477790464,16.92822278647812,-2.4805220140210826,0.160228292845233,7.000274396302737,8.062677482164247,-0.4639020698803801,114.67249015015494,82.3640131835715,-0.042673865162539765
203,55132.995645184,16.071266550929614,-0.9085015718829529,0.16598716110609768,-8.279399218762514,15.187922417282458,0.05563874489978033,-147.6230786867959,68.8398600793776,5.019492988755582
203,55135.269659136,10.298745420762218,1.857647074574294,0.329767013272809,-55.764306313053694,26.721835563728398,1.5821630857964988,-458.71861613716817,111.42110200780103,14.746688495469996
203,55138.68575488,20.188326075664385,2.2192764599856507,0.04105165655122889,95.65060348558877,3.4976274687211233,-2.7924134571153227,1464.4632572744224,-224.62120460701348,-42.31027592823204
203,55139.512554496,15.832404978046851,-4.931588509149721,0.20310207558909266,-42.134224756101545,-69.16933182625287,1.567491381167644,-1332.7736639425161,-702.8974875030555,42.17275893080438
203,55140.64838656,16.977753721950542,-13.678930240138104,0.21363973513126355,11.105448028684672,-84.81534510750255,0.10217449577034009,516.2186821460709,-151.70574750779932,-14.20790008541032
203,55142.094973952,47.29861278236191,17.51322729336033,-1.5367915543562045,292.58960110684905,300.99743916241414,-16.891275795836147,2716.2599813859615,3723.008257336829,-163.98304653386532
203,55143.545949696,24.582568545958438,-3.0538952146762885,-0.02576669964003564,-219.20102516959318,-198.46476312655858,14.580804376130239,-4938.581241720017,-4819.616727095238,303.69337927503966
203,55143.6495808,24.03487242077032,-3.2053539817540795,-0.014363367916828906,-5.284911785525002,-1.4614787038626085,0.11003474270979531,2064.15151896293,1900.9537072679427,-139.63352571649736
203,55143.75321472,23.452717427612384,-3.3915809800981656,-0.06293018781267001,-5.618139136807631,-1.7972004019954837,-0.46869846486584765,-3.21584053336083,-3.239912452050594,-5.585116887194414
203,55143.856835328,18.940363243739547,2.142683142798869,0.11719730585001464,-43.48789596948971,53.33657169563353,1.7359820143649656,-364.9704740411311,531.3527368832122,21.24764843801903
203,55143.856835328,18.940204443303674,2.143150207209154,0.13601574370551006,-0.0015304421048855507,0.004501341795846477,0.18136303898593845,419.1006430534685,-513.9888033777094,-14.982668806253233
203,55144.06422528,39.734782014863754,1.6328071542530185,-0.5408335153807062,200.6576336263088,-4.924564059616118,-6.53126855703524,1936.2640519549839,-47.56310129566313,-64.77365394067729
203,55144.167857408,39.85222288367806,1.4815552430593792,-0.7002167521578784,1.1332168887947236,-1.4594682580058747,-1.5379294919236677,-1925.2619727411682,33.43559293558367,48.18200186350798
203,55144.271492352,38.403510865191144,1.3440121684174868,-0.40964872414144793,-13.980407582105393,-1.3273226279974897,2.8040489829311137,-145.84998774756417,1.2752360332047628,41.90110112746776
203,55144.271492352,42.88880021732812,-4.29858872073733,-0.5389408583736159,43.28408439107505,-54.45240962101338,-1.2476991359634497,552.6156527668069,-512.6694329304178,-39.10031075833615
203,55144.685766912,25.694512571801248,-4.003093929249907,-0.10448202090923431,-166.1049133024199,2.8546187974297443,4.197076902413304,-2022.7962928959614,553.6128732580086,52.59909979701582
203,55145.410937088,25.50363629165845,-4.451030456852418,-0.06410264515411956,-1.8416592220362564,-4.321890788781621,0.3895981715687254,1584.8849133716524,-69.24215545058846,-36.73624775231852
203,55147.171058176,24.43640790975972,-1.7983140427027635,-0.12787567799175736,-10.311611689702593,25.63067291833619,-0.6161780946327698,-81.83708600536562,289.40310368187494,-9.717858407529587
203,55147.274555904,23.972442735269453,-1.5475935159167729,-0.012013553470051619,-4.48777120616175,2.4251310718310854,1.1206933944654232,56.33195133670979,-224.45900737386515,16.800144248200873
203,55147.377940224,23.010708961606188,-1.632658115581881,0.019308922740892243,-9.290823991498305,-0.8217661114108917,0.30259061439144674,-46.399865817816284,-31.366632922839468,-7.903277543920451
203,55147.481454592,33.80498364999382,4.25972099725324,-0.32729425952144986,104.27700152009108,56.922733897727134,-3.348325071115767,1097.1105197318623,557.8349161067365,-35.26930261436835
203,55147.895219712,30.852784589451538,3.8259115334178846,-0.22545003513090833,-28.521960473261863,-4.191145694005515,0.9839434546678096,-1283.0051995778576,-590.4370343383616,41.85516935611321
203,55148.102233344,12.319287593498272,-2.4804044149051263,0.3539710204575339,-179.25243299137762,-60.99347992427177,5.604049465858421,-1457.8362588944608,-549.3812966105554,44.68478039329725
203,55148.309133568,19.031840999387207,2.913391741146556,0.08385239735248895,64.9336242473528,52.17667729192453,-2.612981992743271,2362.124325636189,1094.747113407461,-79.48713416468688
203,55149.447321088,42.37195210203141,-3.169061843464736,-0.6516813056755488,225.45750367558128,-58.75442474880483,-7.105004420273332,1550.6058637445078,-1071.5565678370147,-43.39140283059392
203,55152.242393344,23.423235254314864,-2.5799991421451898,0.033273428369459346,-182.85003405756825,5.684297035200144,6.609629425282965,-3940.0581992160155,621.8163777275169,132.34253727577575
176,55113.321111296,25.81056118658293,-4.290819390350468,0.8265558991517006,0.0,0.0,0.0,0.0,0.0,0.0
176,55113.424749312,25.168457176704177,-4.263744465974593,0.8441625662424403,-6.20353330267414,0.2615778634754845,0.17010257523095876,0.0,0.0,0.0
176,55113.528255488,24.512660528087324,-4.241750879398815,0.8266375234552967,-6.3351790197021165,0.21246419684629697,-0.16929681421620027,-1.2717344413215175,-0.4744517543145566,-3.2786930153733835
176,55113.63177216,23.85855167453117,-4.224278427057966,0.8445785733519209,-6.319687144137052,0.16881048442425822,0.17333785006517055,0.14967509813518579,-0.42176130729245837,3.310372381022675
176,55114.77059456,16.90750866249991,-3.7604727684029573,0.7565898127271984,-67.0803401559046,4.475909772815464,-0.849126668096685,-586.3645592567261,41.56522767165368,-9.867190802434342
176,55116.220935424,8.772396297384223,-2.97947201894094,0.7743377651378787,-78.49835526031114,7.536131222075242,0.17125578737557656,-110.17615563329196,29.529075901805584,9.846003459586036
176,55120.880350976,54.869052623512154,-10.764697057568275,0.833355532509124,445.33632697661136,-75.21247308828121,0.5701662081848923,5060.7274349772115,-799.4280375847507,3.853843548631142
176,55120.983860736,53.75605707511551,-11.033962370408664,0.9879074695533063,-10.740320707087092,-2.5983893820294695,1.491414203899841,-4401.104272332997,700.7202750989552,8.88997169754498
176,55130.405227776,19.773160908561575,-12.348139531070352,0.9041338528997636,-327.9339321835933,-12.681770316733992,-0.80841289652868,-3060.9088691322604,-97.30432460542247,-22.19326277223523
176,55132.374154752,32.905849991439915,-14.165477635076213,0.7990808405336454,126.71972652163274,-17.53582880730861,-1.0136757912485732,4387.036571839604,-46.83770098902017,-1.980619332399718
176,55135.269659136,10.272122713652145,-5.2345531590770875,0.7973105970014696,-218.64867576293744,86.27544133804177,-0.01710108986194239,-3336.3635994673664,1002.8483805592605,9.627214116469165
176,55138.582256896,34.88051016748338,2.872275374409328,0.8149532712460203,237.7668288962127,78.3283714314367,0.1704639410544814,4409.8975361742105,-76.78477975263799,1.8122578204885584
176,55155.244320768,38.8241893804499,1.4603256793218464,0.7530690641460343,38.09779778418306,-13.640098765644316,-0.5978305741445685,-1928.8968397984243,-888.458718591725,-7.422086710935238
176,55155.451334144,37.738403002846766,1.0674979844713017,0.8927102269225227,-10.489726408270581,-3.795088177169923,1.3490660990715968,-469.4015748835962,95.11214147629506,18.808868731888186
176,55156.900937984,33.19010399601377,-16.15261055176363,0.7387399158135306,-43.941209047793166,-166.36381818337426,-1.4875103016380002,-323.1754529360599,-1570.5798011751428,-27.404222197433395
176,55157.211450112,31.184591514444225,-16.586122447315912,0.8665500609755439,-19.37615938969273,-4.188353681536327,1.234831379528894,237.33400911998567,1566.850208195079,26.301769154890557
266,55113.424749312,5.5206481659967945,-2.9009713951197207,0.16260387761460027,0.0,0.0,0.0,0.0,0.0,0.0
266,55126.989249536,5.443885089863723,-3.509946376644103,0.20305610503448557,-0.7416499908807677,-5.883639794622498,0.39083105587191885,0.0,0.0,0.0
266,55129.887574016,6.23796976036992,-2.685479284612784,0.11675864418955939,7.67176299373787,7.9652918147488565,-0.8337318313192165,81.283158816409,133.79646399149672,-11.830673214569314
266,55134.029328128,6.904757715272937,-2.4755396968311185,0.013318254149828235,6.449843867359917,2.0307468855921234,-1.0005795102164325,-11.81963100222008,-57.40488851881064,-1.613918593767891
266,55135.166278144,6.947932401022129,-2.454407997164463,-0.016074023041114716,0.41762692459304634,0.20440604465486975,-0.2843102646154067,-58.349381508420926,-17.666118361349625,6.928442373817046
266,55143.442192896,10.163702434848883,2.6889129676379984,-0.24842238244648707,30.993342448276792,49.57092898643263,-2.2393554870515837,294.68637740209635,475.7907235034766,-18.842574389166135
266,55144.06422528,9.124738143891687,-3.4249237750708534,-0.21722458055481564,-10.025503779929211,-58.99557271350236,0.30104372547999386,-395.81206157753945,-1047.6143238413101,24.513625857439404
266,55148.619527936,8.849422129784143,-2.583681904654293,-0.2239959794914379,-2.663166421509492,8.137438386660984,-0.06550059332042095,71.21681497651412,649.3860573869184,-3.5456292834568828
280,55113.528255488,5.116862933445842,-2.7188610705825114,0.20019934623824154,0.0,0.0,0.0,0.0,0.0,0.0
280,55113.63177216,4.996056558421692,-2.7109799049647436,0.1976721038913125,-1.1671734620610463,0.07614405578619199,-0.02441700778574622,0.0,0.0,0.0
280,55118.39518976,9.989985519663874,5.307401133310607,-0.8316758210658253,48.246687731772234,77.46612518328804,-9.944600391432429,477.3906775892555,747.669877165731,-95.8395671358663
280,55135.269659136,6.445682797948162,-2.6094358550479346,-0.021951037568735732,-34.2390401322296,-76.47904839051441,7.822187193084105,-796.837168949436,-1487.1571053628684,171.6325610112074
280,55135.89044992,4.2799127384854305,-2.1174349449276932,0.280908537963382,-20.92070273077596,4.752584300869966,2.9255345558005454,128.65122796697398,784.6737156822711,-47.3002264265729
280,55139.92572032,9.112998330020595,5.0506589282419165,-0.42718802697116853,46.75046577216987,69.33701481642345,-6.849422298736648,654.5836168100667,624.7255818354769,-94.55321599370302
280,55141.061417472,10.644609442984148,3.725403265825136,-0.6344809018151234,14.834532365726046,-12.835861434136294,-2.007750423739726,-309.12412628303684,-795.8914518222991,46.894369938915766
280,55141.991465728,8.912603132589005,-0.9053351626613351,-0.36700414611331444,-16.733030898417493,-44.73787926827792,2.5841111495406413,-304.9763781554316,-308.2075665294613,44.362287322975696
280,55142.094973952,8.56092294611861,-1.2789929324706928,-0.3016528688774678,-3.393636218272736,-3.605715049206509,0.6306254087380089,128.72221597330383,396.9163108980935,-18.85070645691676
280,55149.033424384,5.9975057801215526,-2.5945431129710395,0.08046205981385457,-24.767124175944716,-12.71053151720057,3.6919031416016903,-206.50553384073282,-87.96856128342478,29.57733401828063
280,55149.757714944,6.511247869273898,-2.6630142867808915,0.0207325837911414,4.963285028827563,-0.6615030363531522,-0.577049107680442,287.2267973029667,116.40619667658363,-41.242536352435465
280,55149.861223424,5.767029283862048,-2.6238195373288247,0.061784390024447244,-7.189252980521732,0.37862662239634365,0.3965660440410376,-117.39517369922815,10.047794285002539,9.405255080429368
280,55150.792784896,5.3149975491409105,-2.6824952545535417,0.14878462989220786,-4.367141771189366,-0.5668743054171564,0.8405214776886895,27.26481084966359,-9.134616619560887,4.289115497665722
280,55151.724600064,5.089996710944034,-2.682761224285544,0.18643399210259493,-2.1738021815513506,-0.0025696152436002254,0.36374204808670074,21.190527213352585,5.45192087455949,-4.606312458626199
280,55151.931781376,4.964164935772274,-2.7248240449910868,0.19003123587134574,-1.2160813964058246,-0.40650951375789074,0.034764996516527105,9.255741867877909,-3.9038136049401553,-3.179346963140628
207,55113.528255488,15.314169444115901,-3.8074912644221177,0.15949543416621204,0.0,0.0,0.0,0.0,0.0,0.0
207,55115.184861696,20.10122520809086,1.3090841812697986,-0.09505199467895764,46.186387639016,49.36565366490978,-2.4559200478992684,0.0,0.0,0.0
207,55123.158499328,11.828257052882734,-3.670795008892023,0.3048721017299174,-79.91898827583792,-48.10690663218437,3.8633690560025964,-1218.2101840818461,-941.6098620777778,61.045948966747616
207,55125.436025856,11.61087937032845,-4.444219175584699,0.31148081305724507,-2.100199283797206,-7.472454678293726,0.06385021053396302,751.8479495531303,392.5906555275824,-36.70913529053051
207,55127.71404928,21.91831495471064,-0.9036641984770846,-0.09794813807877745,99.46472526327425,34.16565887747286,-3.9509088178323957,980.081537619926,401.79960295658475,-38.741634666120945
207,55127.817678336,21.227310752691345,-0.6775243315246221,-0.07712289886069268,-6.675161768292183,2.1845311356378754,0.20117365457094055,-1025.320705624563,-308.94052537643444,40.10948428039928
207,55132.270656,13.525231052982777,-7.032583470106203,0.30633183091150507,-74.41712630505832,-61.40227796004697,3.7049212901301685,-654.5196268581919,-614.3727133839265,33.85304236027659
207,55136.615128576,7.7953355933893125,4.414216202829463,0.4360382939872911,-55.29168080193889,110.45800018218871,1.251626387411205,184.5545063449351,1658.3973841378124,-23.673520683008196
207,55136.718758912,7.318459773811373,4.421136970829654,0.4480605295854996,-4.607175342119243,0.06686267235614105,0.11614878576614787,489.6713026646228,-1066.506846947966,-10.97003495051987
207,55139.615936512,15.41605699311156,-5.305275486375659,0.1798018356642448,78.41995834230683,-94.19397372546186,-2.5979108410240843,804.0637473663486,-912.854846127641,-26.2839009038561
207,55140.0291008,13.498242430236221,-6.9741771524104825,0.3021095436614467,-18.597591315061408,-16.18381241375433,1.1860525058290963,-940.8066733059279,756.4866419212061,36.694164930335724
207,55140.132222464,12.948599662761751,-7.431955860077039,0.3277477854270834,-5.322800478227,-4.433178908704305,0.2482835281506164,128.55452158378043,113.79441583037958,-9.081457008501992
207,55143.234930432,15.935779543830815,-2.0890735714191506,0.11660421381969499,28.824416371122,51.55547032375301,-2.037403325011369,329.49927207877835,540.2554254467871,-22.05544767058419
207,55144.167857408,43.51251000430848,-4.114322576518095,-0.9922382906483502,266.0949038529799,-19.542144057378298,-10.699504063304069,2289.48343401769,-686.0390099557754,-83.58281872552695
207,55144.789281536,22.718174386519387,-4.257502522205851,-0.029346829944910446,-200.6761193647087,-1.3817607063573736,9.29240179898216,-4504.5823676659165,175.2571144394091,192.93225621096934
207,55144.789281536,23.107087516932754,-3.992981872204643,-0.06923902744975141,3.75321333731717,2.5527614110768395,-0.3849803877048876,1972.8490452882897,37.97017825401738,-93.39175526108951
207,55147.481454592,22.27675908702866,-1.6952350711747033,-0.0911818685867809,-8.021304019660587,22.197151136198606,-0.21197660284323605,-113.74653691672074,189.77264488474555,1.6712856081388712
207,55150.06824832,43.148070141014536,-5.210788205911845,-0.8058709698243458,201.6441443569332,-33.96483823952332,-6.904830843041486,2025.6422718129652,-542.5982231666223,-64.66171976832834
207,55152.346023168,22.8434643034549,-2.4688391719565246,-0.011453651985797286,-195.95917142173604,26.462471868357742,7.66689886088574,-3837.2582525289354,583.182245186979,140.63134747885707
207,55152.44963968,22.276861532943585,-2.3476527484503733,-0.035146711002226994,-5.467416158817404,1.1693846987526992,-0.22862545059803038,1838.1443844796204,-244.06487347861244,-76.18762111591164
207,55155.761977856,36.058313137270176,0.6642380320362089,-0.6919889270923463,133.14354233006313,29.098081910279074,-6.345797374110546,1339.129907997574,269.82104542884093,-59.09841447201161
206,55113.63177216,14.658223491653038,-3.781661760954218,0.19796531934878647,0.0,0.0,0.0,0.0,0.0,0.0
206,55115.184861696,13.919552581626203,-4.338989139638288,0.2592017205968715,-7.126831745915418,-5.377196260685503,0.5908199747633385,0.0,0.0,0.0
206,55117.25638272,17.30382306349124,2.6273840764880854,0.09842674892978609,32.65778627763379,67.22462901284149,-1.5514583398791386,383.9165809921754,700.5985206721165,-20.672717420697452
206,55117.360011008,16.73570364829973,2.638426010871053,0.1473424963735388,-5.48872180312077,0.10667846297066373,0.472585379642358,-368.5414809229508,-648.4407128379414,19.55471437296745
206,55117.463517696,16.242748996023398,2.687324425083607,0.16770239545123555,-4.76315172351488,0.4724786851247929,0.19672659124871897,7.010787623662229,3.534527873040265,-2.6654728935336913
206,55118.602214912,14.984070390600339,-2.610470805766842,0.20146191312149941,-12.161623481162042,-51.18843730266104,0.3261917228452354,-71.48562584987555,-499.1588847450236,1.2509199549687389
206,55118.912853248,10.978716296700712,5.000460031783175,0.316356802411065,-38.69819995280149,73.533903987924,1.1100704944050876,-256.3862565675186,1205.0195784676514,7.573537003078198
206,55127.921197056,20.295390270723875,-0.3229734638724053,-0.06486444781098832,90.01391940118138,-51.4328519975641,-3.6832048633647076,1243.5642129142352,-1207.3780334557903,-46.31067942540055
206,55128.024699648,19.372437960130963,-0.031167858865029152,0.07628006830779821,-8.916925653130946,2.8192235450888217,1.3636405068099817,-955.8012694978949,524.1459592111618,48.759122689433404
206,55132.374154752,13.23617317552427,-6.593937161920747,0.29843215754953034,-59.20994477691993,-63.32536512967648,2.1435862691383902,-485.2865691934105,-638.2412722067635,7.525839763679258
206,55132.581404928,21.271214237278805,-3.9485158725090574,0.027850100252986287,77.52871280126702,25.525209617332248,-2.610799179256341,1319.367509230273,857.303732345106,-45.87423774715972
206,55132.68504448,21.584275820745745,-3.69643326276144,-0.02298176532006746,3.0258338705636936,2.4364538449828026,-0.49130518938657697,-720.0926157291818,-223.15973257231553,20.485543553386417
206,55132.68504448,20.94751992359375,-3.2962632067821684,-0.05232807056352495,-6.154436259941643,3.8677633197856673,-0.28364082043599514,-88.73005749918418,13.834034314129106,2.00713825797876
206,55132.788507392,21.206074880978342,-2.899607215837438,-0.05636745470292137,2.495090757024942,3.8277846487105873,-0.03898061028197374,83.46912057295889,-0.38579965237021807,2.361004542871915
206,55132.892132864,20.64104600220155,-2.299394852546309,0.04340295714361275,-5.45856646616626,5.79846305543192,0.9638506010525983,-76.83778339946274,19.038104901495576,9.688037243806468
206,55132.995645184,19.728657739010494,-1.349888930062252,0.04998062308170592,-8.814950355821912,9.173559006537987,0.06354947892324063,-32.42737610292958,32.6081608624393,-8.698171619508463
206,55132.995645184,19.728739452195168,-1.5325061832108693,0.0609662671829545,0.000789463976439236,-1.7643388079012785,0.10613673069461237,85.17241178615674,-105.6754345941705,0.4114525858131526
206,55132.995645184,14.084361759693765,-3.9948024510942997,0.23882927174846458,-54.53260542270894,-23.789235612046628,1.7184060981875957,-526.8690841980979,-212.79139567360608,15.576783490130259
206,55133.099149824,19.78118070113466,-1.091559161710047,0.07618558031537859,55.03708345023439,28.048292360465908,-1.5713040049317144,1058.554988688325,500.8034101493539,-31.781956094020117
206,55133.099149824,19.25332425469125,-0.7999331896797818,0.06215657466384972,-5.099631845645777,2.8174044363828514,-0.13553450841667675,-580.9820273707365,-243.75612047274294,13.870998254863355
206,55133.20265856,19.459163274112587,-0.5798066376097489,0.04422303202549749,1.9887821815079556,2.1268259325388392,-0.17327088979890012,68.48707087696663,-6.672254013055365,-0.3646026059516635
206,55135.269659136,22.08517583759372,-2.6816719109229195,-0.025728876398648737,25.368078465161503,-20.304656542055316,-0.6757566686349491,225.8510986702075,-216.69492957453934,-4.854165148487593
206,55135.373175552,21.756362922261296,-2.6954121766744765,-0.025681691595575096,-3.180593540038884,-0.13290901436653654,0.000456416621264118,-276.1501070133766,195.12046785935854,6.540980814215569
206,55135.476556544,21.248581257447217,-2.6353244931722535,-0.024684275505509667,-4.905798171451713,0.580521252101346,0.009636271590489746,-16.6676079752977,6.892617711941075,0.08868873935948064
206,55135.683567616,20.212039750379574,-2.574267361818168,-0.019069523701324087,-10.014073311134899,0.589875644514352,0.05424436533178995,-49.351271891610835,0.09037319853208128,0.4309607651497614
206,55139.822452224,20.5947264345686,-7.029271340713883,0.05467334135839774,3.705759077515812,-43.14017737551402,0.7140914562423254,132.8564476289032,-423.46140494183766,6.389650980660496
206,55142.82028032,23.6375853009598,4.540355925389966,-0.10070295630914483,29.362989337435618,111.64462663876847,-1.4993507001240358,247.5872236045074,1493.642902754375,-21.359281284543226
206,55144.06422528,38.35735563902835,-3.603376493010345,-0.7355184091361675,142.03867683271122,-78.58308591932929,-6.125662621196855,1087.2659827887649,-1835.6055813443427,-44.6416763843888
206,55144.06422528,38.35629574702477,-3.8250276037043918,-0.5822759415667047,-0.010227446102537837,-2.138826201660308,1.4787158242444578,-1370.7033429127944,737.6501978208556,73.37858048860025
206,55144.271492352,37.20875049605842,-3.971643835646076,-0.5545238486474116,-11.074078300375357,-1.4148807040602047,0.26781414478317417,-106.76873139487657,6.986242258313228,-11.685482556019524
206,55144.3751168,20.935405433451162,-3.5101537621472705,-0.016381035984027292,-157.20078777226857,4.458001893525338,5.198468646686129,-1411.5864780827465,56.7321449451634,47.63020564917847
206,55144.892902912,22.08532208165322,-4.288851905674051,-0.12169711073799316,11.10972528255134,-7.523260460783522,-1.0174934506623547,1626.1035659653762,-115.75494058866472,-60.05446688354997
206,55144.99640832,21.46544434353157,-4.105693819332968,-0.11553566327114773,-5.981432231798935,1.7673609064827562,0.05945411200666883,-164.91897377192896,89.64868179973338,10.391869988467972
206,55145.618212352,29.930267644889817,2.1231442174702444,-0.3779730802504355,81.78327967127507,60.18020519214068,-2.5355511751296946,847.9428008481013,564.3583818036775,-25.071762940669654
206,55145.618212352,34.34357555063699,-3.4540351979936545,-0.5455256570344709,42.6393773244216,-53.884175448597304,-1.618816927291654,-378.1906129740618,-1102.0382600278742,8.857070101291349
206,55145.825339392,28.60456165969891,2.452732392065688,-0.2560325993190524,-55.44788382186707,57.06864791066834,2.796957410538312,-947.6769291380042,1071.9784576661996,42.66331239486793
206,55145.825339392,33.32123360960544,-2.9978254737650722,-0.48991676517747784,45.57045570446038,-52.660945774352776,-2.2596882152122633,975.9957477674204,-1060.160138673791,-48.85513513526974
206,55146.239485696,20.34571025698829,-3.1207505137780656,0.06660088490252036,-125.20722627018016,-1.1861643558348982,5.370113362160524,-1647.9181060995766,496.7055608571256,73.62371956288048
206,55146.757163776,21.404496412437492,-2.1355330942303494,-0.07685323990969106,10.24286228622695,9.531146868970657,-1.3877975616514302,1310.365267433918,103.6809391484194,-65.3770835394302
206,55147.171058176,25.650374358625104,3.6158465824839467,-0.08042545914422572,41.023875869066906,55.570105623327265,-0.0345149531644515,297.4076260200371,444.830622315859,13.075481313867181
206,55148.826423552,20.242948804119415,-2.392205894006473,-0.029711025588955664,-52.248226023799525,-58.05166998424179,0.4900186161336685,-901.2240320817194,-1097.8489030187634,5.068206341356419
206,55153.89961984,29.57483067988862,2.1372133098316555,-0.30769944431205776,90.1610749693943,43.761516684586425,-2.685817822683384,1375.9042210473795,983.6800849308336,-30.68371750334832
206,55155.658472704,20.502261305166506,-1.3928730543489103,-0.06829175975911106,-87.65331193618283,-34.10541693991312,2.3130025891569934,-1717.927885522842,-752.3000751605006,48.295377723184735
206,55155.86548608,37.05074891495645,-12.072920337278681,-0.47574015654684665,159.68688792754642,-103.05857270734307,-3.931728869024272,2386.742988661404,-665.3728798014313,-60.259387807154
206,55156.07264768,34.284058336150835,0.34568554048533195,-0.5256363574155518,-26.735864594362585,120.00697430429263,-0.4821710387197385,-1801.4929124766097,2155.5898972790505,33.334739984281036
196,55113.63177216,29.587189108485823,0.289387325913312,0.06362990171928296,0.0,0.0,0.0,0.0,0.0,0.0
196,55113.63177216,29.61355751845761,-0.006834129376898035,0.16920957838435857,0.2547589756721389,-2.8619501366440416,1.0200603793618364,0.0,0.0,0.0
196,55113.73527552,28.98812180297846,0.5822007893738503,-0.05438759735574106,-6.042885179215851,5.69118502903622,-2.1603692049457446,-60.847085616773455,82.63937036106466,-30.72893076441607
196,55114.252932096,25.94635255134663,0.5660731481811045,0.1672474408105291,-29.388775044069458,-0.15582103039236164,2.141379486645117,-225.56185189712397,-56.492235783392196,41.562365233806396
196,55114.460065792,27.11654511403876,-0.0410132754073588,0.16008538963547725,11.305617603184555,-5.865262843053829,-0.06919494655930236,393.16199447145357,-55.16080679327117,-21.35709115061332
196,55114.977720832,30.124877688719156,0.3924559974418963,0.06583396551586063,29.028741750000552,4.182738199894131,-0.9094739967800258,171.0183236359028,96.95764020055552,-8.108227046467613
196,55115.081353728,29.586596691430042,0.4846878844150643,-0.0067570458426367,-5.200382228415388,0.8910607439683804,-0.7013084379953899,-330.6907153104906,-31.801198685595963,2.0111066114606695
196,55115.184861696,29.015136417064042,0.585816073643656,-0.05736741859741379,-5.513553017450204,0.9757032253714792,-0.48829811263077155,-3.0215289256559745,0.8166461076621323,2.0551624930798797
196,55115.39213568,27.79271030616257,0.8692486714240412,0.013388193474562549,-11.797249744947345,2.7353188156367145,0.6828401479858395,-60.64197987486131,16.981496377031373,11.302286840199022
196,55115.495755264,27.19975681476674,1.0045661103485157,0.018415892997343697,-5.721615967010308,1.3057253737433052,0.04851403404195741,58.625918791236025,-13.794647948215282,-6.120834895987001
196,55119.016355584,29.954258978575215,-2.4168154327796953,0.09161455608753055,26.579615963224583,-33.014679993671514,0.7063317573396211,311.69129257739354,-331.17534135707655,6.347623424945823
196,55119.119987712,29.451829734044665,-2.4296456103841155,0.04574012500326674,-4.854003142217319,-0.1239532194533216,-0.4431960023316454,-303.68233451785056,317.7595509215207,-11.105665958445393
196,55119.223495936,28.862473474376667,-2.4093515071005456,0.11174941033244412,-5.6870876475816745,0.1958312009237906,0.6369671740361822,-8.038982401778973,3.0858109966291636,10.423207621744082
196,55120.776844544,19.596961756771226,-3.156572157782596,0.24320717570370043,-89.51628936510767,-7.219074566485461,1.2700444101650767,-809.8936472049894,-71.63714973553039,6.116308174549757
196,55124.193952768,19.28673431041865,-5.381924716386285,0.26856186556446104,-2.997551060481421,-21.502313868149432,0.24498792216445023,835.9812737580987,-138.0108034256703,-9.904536812540947
196,55125.1254976,13.518454704752045,-4.670526909358275,0.41129081372923526,-55.72526124749252,6.872556699329395,1.3788527026755855,-509.38332154821194,274.11935331345893,10.953857204016701
196,55127.299898368,29.824316160031895,-2.972466566369872,0.030469503895009353,157.3312534699519,16.384167310797054,-3.6744513124074856,2055.7299969932487,91.77519532620235,-48.75808966231127
196,55128.128205312,8.85406809331869,-3.2190279470325707,0.5697904106548148,-202.60251069468106,-2.382134660672104,5.210609308581002,-3477.4736126891994,-181.30924745279472,85.84236026964922
196,55131.026757888,17.074645422369674,-11.268358117271626,0.4244789852842996,79.22928742404302,-77.57882057445651,-1.4005002599990168,2716.2730358940667,-724.7398331190567,-63.717361839029884
196,55132.374154752,19.493383951322777,-4.525039881868882,0.33577752700674335,23.33885185143638,65.06751490466935,-0.8558966456958399,-539.2970675114291,1376.4206635177645,5.254980197251858
196,55132.68504448,32.609093199367464,-11.291039883947022,0.0568599264526668,126.76725403259205,-65.39541437119203,-2.695822060013326,999.6664523070544,-1260.9632452636738,-17.783429625247226
196,55132.788507392,32.53419709526821,-10.213973816025211,0.06321347073746697,-0.7227576642332775,10.393835097810603,0.061312572691356926,-1230.2960771492276,731.3766393992731,26.60672689289051
196,55132.892132864,32.313245055630276,-9.270977777708492,0.09520793217171342,-2.134548231958815,9.109988437452394,0.30908843927784063,-13.638865091142941,-12.402839201957429,2.3936847960802212
196,55133.20265856,31.536441483507314,-6.557949405531859,0.07394867985866416,-7.505346202643915,26.2128264100695,-0.20540334049022166,-51.89175179033339,165.24476024409577,-4.970933533455098
196,55133.306158592,31.169102059554614,-5.908590552044297,0.06517760952703,-3.5533028372729465,6.281298728237694,-0.08484324595480747,38.22842305378743,-192.79921850195052,1.166187177420256
196,55135.683567616,32.582151471379746,-2.344009586257272,-0.01388732951145677,13.651532819273283,34.43757425194731,-0.7638498704327807,166.21667766888407,272.0190222392524,-6.559913008698203
196,55135.787076096,32.132100360778885,-2.266144057553709,0.004273849444022204,-4.353627380559633,0.7532422202291417,0.1756845036072788,-174.17523608085347,-325.84972411991157,9.088706770074884
196,55136.408113152,28.99480211122566,-2.108821378672401,0.15370940967995583,-30.309801934917182,1.5199126310168596,1.443714263834989,-250.76561013692282,7.406891679376207,12.250582451176157
196,55137.236406272,25.93974061195698,2.9761369912390485,0.0895952545239318,-29.515230163288944,49.126250549982736,-0.6194127504823906,7.67643097413052,459.9292096888865,-19.932059861398315
196,55137.33991424,25.41189708388936,2.9709852532575045,0.09408306736316163,-5.0995701031878955,-0.049771660716040375,0.04335738711701583,235.88310450240002,-475.0964240812991,6.403114937036187
196,55137.443421696,24.90969508584078,2.9819367242964914,0.13803101792768135,-4.845539987117688,0.10566622801854891,0.4240356522668633,2.451031836060653,1.4997560907827057,3.6730076008812307
196,55137.547063808,24.430473096916824,2.9658938760039573,0.1851165310091778,-4.63040322497389,-0.15501136881952288,0.45495598420194294,2.078723389713146,-2.518754174422879,0.2987625944104472
196,55137.650558464,23.96762357614977,2.979152815246266,0.18582220476007283,-4.471565439753714,0.12809393079946876,0.006817477851147415,1.5345236822120834,2.735065754177424,-4.329443085303725
196,55137.754067968,23.491265531850605,2.9789138386221623,0.12941246673688944,-4.602264091103566,-0.0023088379610426302,-0.544994494791429,-1.2627260462202372,-1.2598674195372166,-5.331251265988974
196,55139.512554496,18.679995104606533,-4.591937576921206,0.3067333370430978,-46.53875609793837,-73.23180286989727,1.7152003528061428,-405.64591049752283,-708.3388085254323,21.862553422591965
196,55140.132222464,19.044816829403906,-9.072189924511575,0.3698532510457202,3.5329733531138547,-43.3872521381614,0.6112601280692936,484.90008645495936,289.01788271912847,-10.69067747978009
196,55140.235484416,18.358266546376267,-9.775271399505403,0.4057318412859705,-6.6495839245693595,-6.80969681224829,0.347502146304082,-98.62317569238142,354.27197382051975,-2.5546283773831058
196,55140.33873152,17.599117595065376,-10.545923243104012,0.40183595460382415,-7.351061576594043,-7.462447450696782,-0.03772501147032758,-6.792613499279269,-6.320775559407801,-3.730267364376937
196,55142.613005824,47.21756904647223,8.917485561202577,-0.5144230953342088,285.8044622744757,187.81296167591896,-8.841479288723006,2828.8162530883264,1884.3180708628745,-84.95218804179929
196,55142.716637696,45.691158624488494,7.5307305890824185,-0.2511079478715317,-14.727631963984232,-13.380160774235433,2.5406067244566235,-2899.6959229073136,-1941.2198832341726,109.8205118166499
196,55142.716637696,45.63904044716497,7.61343254975623,0.23030746265531654,-0.5028643169619753,0.7979531729879507,4.6449558296486515,137.24823917689832,136.7980990897368,20.30389644793581
196,55142.82028032,45.42077174230127,6.5084529842171746,-0.08079053845571416,-2.1062500546434624,-10.662835387921747,-3.0020344980227334,-15.472356881005952,-110.59435454911798,-73.79195201425448
196,55143.131300608,22.535795542594993,3.3556661475773493,0.1810627396721376,-220.83388079268258,-30.423547150387428,2.526813884473315,-2110.6629568218636,-190.68556714456693,53.35190362298122
196,55143.75321472,29.542593690554448,-3.3612734342219523,0.04830906873291596,67.61973591469769,-64.82242974396542,-1.2811512449849993,2783.7475796377616,-331.9695112689715,-36.74911007695248
196,55144.582270208,30.62340600826362,-4.458972270632995,0.02132734870275499,10.442963649121054,-10.606123615078534,-0.2607012492816093,-552.4501752617499,523.8457267896667,9.859734235323304
196,55144.685766912,30.288961148413918,-4.115672801877274,-0.06716055507417451,-3.230894794541061,3.3164344851047525,-0.8548348084082179,-132.09590988114826,134.49846564480836,-5.739609884591963
196,55144.685766912,34.43595512417344,-4.339310870370062,-0.09701098026735444,40.061914108340225,-2.1604490249282944,-0.2883691602102188,418.22891518870927,-52.90927308862153,5.4723248396513915
196,55144.892902912,34.41936777943435,-4.0929408911864815,-0.051642686007825844,-0.16025582680827785,2.3802619006143084,0.4383181046638328,-388.5996945485355,43.869310918432404,7.020766150052929
196,55144.892902912,33.14862010205919,-4.625131551251251,-0.21042163978797124,-12.277113842252625,-5.141670085830727,-1.5340160175143156,-117.06497514384448,-72.6718741694016,-19.055372662933202
196,55145.100041984,31.859286931570118,-4.3898669294572725,-0.023108648584623914,-12.456612824514144,2.272958124455687,1.8096838441972716,-1.7341904913358652,71.63482253250606,32.30443110598288
196,55145.203547904,31.191694857381805,-4.272857154057277,0.06352508946436064,-6.441766149498551,1.1290571585178844,0.8359510286981817,58.038789260116175,-11.037792097391304,-9.395796223561218
196,55145.307182848,30.538594111728116,-4.267638856185297,0.1010205506299906,-6.294689697966242,0.05029479153755706,0.3613872663451786,1.417546420571333,-10.39728465045337,-4.573921628158041
196,55146.653655296,22.949054776010687,3.7180365593638354,0.21020784010291127,-73.32287495748021,77.14996313277335,1.0548632293520313,-647.5622602390241,744.8633034212005,6.699701928188645
196,55146.757163776,28.713417755623645,-1.3018309361172575,0.007604005727138485,55.765345876618966,-48.56298052887295,-1.9600210708196593,1248.8195675516351,-1216.166610127374,-29.16646060834137
196,55150.689287936,33.30329900787987,-3.145975274690889,-0.09551563558194331,44.3479813536045,-17.818343056308155,-0.9963543016973573,-110.31594090262209,297.0583626071813,9.311063524163348
196,55150.792784896,32.49836047537437,-3.110478883236734,-0.07282659722161,-7.77662367159523,0.34293559929273953,0.219201970925021,-503.5830947858728,175.4586515568723,11.743659052334694
196,55150.896292352,31.96821148790848,-2.890975193117294,0.06326723233689435,-5.121742129805469,2.1206138725386845,1.3147954951082603,25.648674172187146,17.17405846391325,10.584472747507396
196,55153.27857792,18.21384066965711,-1.52725511709236,0.27809912117666213,-132.88618557461461,13.175416126923631,2.0755722399038654,-1234.380675480635,106.80463128982497,7.350152255282346
196,55153.796241664,45.789724183489135,6.363737989673918,-0.30723435907937713,266.7476307028639,76.33132458173893,-5.662060435925553,3865.7464442540845,610.921094758711,-74.84783515607981
196,55154.106492416,28.604442788507313,1.3428784297361958,-0.041377963891280345,-166.20040467192655,-48.55718515649264,2.5711211500897306,-4187.079456389772,-1207.8080294587971,79.62384088355753
196,55154.209893376,28.186696025136374,1.3678738968379183,0.06228242864257627,-4.041157140273637,0.24179866658334387,1.0027796076059423,1568.6800197708646,472.0667619861683,-15.171666613652175
196,55154.313266432,27.640383009958324,0.993595542659555,0.04551422140581174,-5.277915024270377,-3.615892892709799,-0.16199718924169346,-11.948283925111753,-37.269052126020696,-11.252876620558053
196,55155.761977856,37.774490407537904,-11.990009880642521,-0.12764897627864613,97.90630160058336,-125.43549604974478,-1.6729414435320855,996.8697426381824,-1176.9074808112507,-14.59733532107182
196,55155.761977856,36.182543368546206,-9.982768884491712,-0.14748076433289903,-15.379908739560296,19.392091937088956,-0.19159625474092307,-1094.465791767541,1399.1891888683351,14.311376733879905
196,55156.07264768,35.91118968429475,-12.391629803171401,-0.0974006742097675,-2.622221442074074,-23.277984116414963,0.4839480492189841,123.28368149865868,-412.34151167353474,6.528110218223995
196,55156.797427456,30.147525920359517,-0.15430037208694253,0.04738441102515267,-55.681908644066766,118.2230413392053,1.3987474320621802,-512.6018408552877,1367.0206131320317,8.837742406462821
196,55156.900937984,29.572381760273917,-0.2730343486250137,0.10255078679667307,-5.556479407570026,-1.1470913579553765,0.5329634763553915,484.2627895356704,-1153.237275524032,-8.364356373840785
196,55157.00444672,29.00857385122054,-0.3809882619996529,0.11473863726391365,-5.447525519245473,-1.0430532962869223,0.11775930308695841,1.0527150782002128,1.005218243325641,-4.011712665355453
196,55157.107944704,28.38282473182013,-0.5230837810600147,0.12723911969695667,-6.045569323389868,-1.3728318336997734,0.1207712976043691,-5.777899104105975,-3.186099584456247,0.029099875800264022
196,55157.211450112,27.80883145201643,-0.6761378648445622,0.16652925785975103,-5.545607609175728,-1.4787244407134557,0.3795997215083671,4.83035530936997,-1.0230761715735825,2.500657982553134
281,55113.73527552,4.959903906472887,-2.7651695663932747,0.22309098845521458,0.0,0.0,0.0,0.0,0.0,0.0
281,55130.612408576,4.746507951238866,-2.8003044463730746,0.1935664596535579,-2.0602010581172796,-0.33920472781138883,-0.2850403861257902,0.0,0.0,0.0
281,55139.512554496,4.956912117604016,-2.8106888723706156,0.2218470234452311,2.035210518413259,-0.10044712223616883,0.2735539979544991,39.61435204339623,2.3094694302514327,5.403206531727118
281,55141.888084224,9.211899045364218,-0.45846604294029636,-0.3870388513550047,41.158106268182664,22.75284009652649,-5.889698362343784,378.432255639303,221.05779404174552,-59.61658635137418
281,55145.100041984,4.217228489340779,-2.7393368705139394,0.3074046563535928,-48.25492644293375,-22.03613887559936,6.7092153541215485,-863.844625610239,-432.71900749241263,121.72167269685498
281,55146.446637056,8.593558495356975,-6.208042732757667,-0.28650457656368755,42.28002217294834,-33.51140351972761,-5.737797538563509,874.6643031133578,-110.86331307904501,-120.25143907480512
281,55146.55014528,6.1008961699218505,-2.8177018802359166,0.021923631570404556,-24.0813635408901,32.75374677268233,2.9796943334656656,-641.1107666471476,640.1810457839231,84.21882450461615
281,55150.689287936,5.847826368511462,-2.806368808984912,0.07569106198893683,-2.445190674288449,0.10950148923168046,0.5195073402956057,209.0512887190157,-315.4126003633141,-23.770620829428697
281,55151.828105728,5.233946864795753,-2.8217836085273325,0.16989125791778703,-5.921154249266836,-0.1486829341258949,0.9086048435071845,-33.52729056386858,-2.490309232031613,3.7530269712137314
281,55152.138888448,11.192631056118355,-7.145039582993232,-0.9026051002476665,57.56910466438077,-41.768613286701736,-10.361793495501507,613.4034365995027,-402.10590956991973,-108.88758671461653
281,55155.658472704,5.849572111475411,-2.759082913983671,0.10452811547470775,-51.6211883342633,42.374283642118925,9.73027135675202,-1054.9261644975293,812.9343835347526,194.11656777664882
281,55156.590418432,8.707593047660694,5.773324805897778,-0.3854656074083149,27.6115348694093,82.43217196021635,-4.7338627208359805,765.4727338899495,387.0019866146795,-139.7389841979944
210,55113.73527552,14.023743587901173,-3.765369488145017,0.207785517638579,0.0,0.0,0.0,0.0,0.0,0.0
210,55117.670519296,15.115062946474819,2.7319419650327372,0.0804850501291634,10.529456392453458,62.688485342951815,-1.2282424121306144,0.0,0.0,0.0
210,55117.877659136,18.88543037495762,-2.4152141190941787,-0.021725264505737307,36.42676746454724,-49.72837829114937,-0.9874876744259259,250.2024925352732,-1086.0965219882953,2.326011194586883
210,55118.705710848,14.724857977809982,-2.6514711049544566,0.15559420084803177,-40.14761401931177,-2.2797714766812307,1.7110514548465465,-738.9076353266053,457.8572778705469,26.039664026112245
210,55122.433584896,13.934185450677257,-3.9495679778979564,0.17732940567799638,-7.628025298417927,-12.523409435405917,0.20969072102518388,313.73322955419195,-98.82565387765064,-14.484400642034961
210,55128.128205312,18.30918214856916,0.28286273219678104,0.00342957067515659,42.26870909938489,40.891318284765866,-1.680120476824113,482.0736327152559,516.0624666790493,-18.258272014957686
210,55128.231709696,17.415042009908692,0.5614946109850139,0.05344400072670785,-8.639096589886952,2.6921145912087003,0.48323464457238685,-491.8663546272362,-369.0770563770879,20.902130487028625
210,55131.752491776,14.853195631905308,-9.075931264435681,0.13616375127613045,-24.725466948625176,-93.01488840179965,0.7983634287245173,-155.25638931492566,-923.7089154033861,3.04144167426094
210,55132.477790464,12.953035827554578,-6.149748865897608,0.20886152172188144,-18.338750507976044,28.24106100168597,0.7016179753082825,61.63923639584287,1170.26083733947,-0.933706064573645
210,55133.306158592,18.92231590398531,-0.1440186531426855,-0.010313341611409399,57.741310757838406,58.09389576335201,-2.1200955110153745,735.928353801,288.7687940429916,-27.294654162184962
210,55133.409538304,17.82222116842151,0.4044469277381925,0.01986621414146761,-10.64127564399318,5.305337112085268,0.2919284687014114,-661.4684423320448,-510.6265717827827,23.331637902015185
210,55133.512918272,17.337442316965422,0.6296324381832757,0.0047646779518792926,-4.694802551694364,2.1807913151878426,-0.14624963614735179,57.588149655152925,-30.259417332459016,-4.243501296646216
210,55133.616176896,17.504975390664598,0.7798333470242892,0.03005495331032204,1.6223924603658222,1.454547550899222,0.24491135485157053,61.17579849713862,-7.032954040377945,3.7880081142986786
210,55133.719439872,16.931276555969653,0.9302619195286357,0.019497650185575033,-5.549680846634431,1.4551721515311058,-0.10212616690197122,-69.37911575797753,0.006042079840382001,-3.3570705936037037
210,55135.580062976,20.594893585189688,-2.593538768278133,-0.06337022294701455,35.39567916225579,-34.04485719510329,-0.8006198865398638,395.58960843848985,-342.98007651516144,-6.74842905248124
210,55139.4092992,18.047620513255843,0.24011516820866152,-0.025031542407009333,-24.669660255263718,27.443182540711668,0.3712998947690297,-581.7167907413855,595.4952638403685,11.349730490168746
210,55142.198603264,45.96551282788313,9.736381292677708,-1.1388265698138138,269.69331307649895,91.73613266006942,-10.759518220223539,2843.614576280094,621.0848057489961,-107.52628389183371
